Time (s),Acceleration x (m/s^2),Acceleration y (m/s^2),Acceleration z (m/s^2),Gyroscope x (rad/s),Gyroscope y (rad/s),Gyroscope z (rad/s)
0.0,-0.466122359,0.02501462027,9.553678513,0.01190314535,0.08445648104,0.03618067503
0.002,-0.4679227769,0.02311841212,9.547693253,0.0116937058,0.08422958851,0.03954916075
0.004,-0.4743967056,0.016280571,9.537436485,0.01350884791,0.08129743487,0.04312708601
0.006,-0.4846630394,0.01179862581,9.533385277,0.01424188633,0.07473500073,0.0467922762
0.008,-0.4930619001,0.003696647473,9.54393959,0.01422443334,0.06953391433,0.05049237609
0.01,-0.5089210868,-0.02447831817,9.537282944,0.01548107062,0.06553710997,0.0535816066
0.012,-0.5101565123,-0.03971501812,9.529909134,0.01631882787,0.06232570857,0.05578072369
0.014,-0.5002157688,-0.0493109785,9.509817123,0.01539380383,0.06070255116,0.05731661245
0.016,-0.4856685996,-0.07892246544,9.49651432,0.014381513,0.05941100791,0.05888740718
0.018,-0.4777486026,-0.09016563743,9.495575905,0.01333431527,0.05698499829,0.06110397726
0.02,-0.4720025063,-0.1037263945,9.474986076,0.01101302728,0.05347688869,0.06326818466
0.022,-0.4719067514,-0.1099321693,9.469230652,0.007871435024,0.05078908056,0.06478662044
0.024,-0.4756608307,-0.1281376779,9.467104912,0.004066617228,0.05126031861,0.06633996218
0.026,-0.4921520948,-0.1529990733,9.4626894,0.0006108652451,0.0539830327,0.06729989499
0.028,-0.5014128685,-0.1805994213,9.461587906,-0.002356194425,0.05794493109,0.06768386811
0.03,-0.4961743355,-0.2083913088,9.463388443,-0.005462880712,0.06237806752,0.06815510988
0.032,-0.4935120046,-0.2256200016,9.47963047,-0.007661995478,0.06640977412,0.06897541136
0.034,-0.4952933192,-0.2340284288,9.502836227,-0.01014036313,0.07119198143,0.0702669546
0.036,-0.4908879697,-0.2402820885,9.507575989,-0.01368338149,0.07756242901,0.07077310234
0.038,-0.4820677042,-0.2533161044,9.516970634,-0.01764527895,0.08552113175,0.07131415606
0.04,-0.4579246044,-0.2804950774,9.547041893,-0.02241002768,0.09477137774,0.07215191424
0.042,-0.4574361742,-0.2845652401,9.556292534,-0.02813470736,0.1048419252,0.0731292963
0.044,-0.4586907327,-0.2751512527,9.573866844,-0.0345749706,0.1149299294,0.07478735596
0.046,-0.4331302345,-0.272565484,9.595941544,-0.04129448906,0.1247212291,0.07672467083
0.048,-0.4018906951,-0.2493225932,9.630561829,-0.04656538367,0.1353328228,0.07878416032
0.05,-0.3962978423,-0.2280046195,9.650069237,-0.05153957382,0.1469218135,0.08056439459
0.052,-0.3829573393,-0.209779948,9.663908005,-0.05862560868,0.1588947773,0.08192575723
0.054,-0.3675003946,-0.1918521672,9.674806595,-0.06592108309,0.1710248142,0.08468337357
0.056,-0.3578852713,-0.1799003184,9.687677383,-0.07267551124,0.1832246631,0.08833111078
0.058,-0.3392105103,-0.1488523036,9.70868969,-0.07984881103,0.1954594254,0.09075712413
0.06,-0.3215987682,-0.1310777515,9.740167618,-0.08782497048,0.2073800266,0.09334021062
0.062,-0.3095223904,-0.1315566003,9.749639511,-0.09580112249,0.2185326815,0.09752900153
0.064,-0.2907326818,-0.121098727,9.764598846,-0.1034631208,0.2290744632,0.1027126238
0.066,-0.2756205201,-0.1197100803,9.77338028,-0.111002937,0.2396860719,0.1076693609
0.068,-0.2640517354,-0.1290857792,9.780332565,-0.117862083,0.2500009537,0.1125213802
0.07,-0.2628163099,-0.1581896991,9.776578903,-0.1244419739,0.2598795295,0.117338486
0.072,-0.2789819539,-0.1754758358,9.773993492,-0.1308996975,0.2692694068,0.1221381426
0.074,-0.2863369584,-0.1810591072,9.763822556,-0.1376366615,0.277821511,0.1275661141
0.076,-0.3091776371,-0.2102300525,9.744898796,-0.1448099613,0.2857278585,0.1338842064
0.078,-0.3539683521,-0.2546760142,9.719520569,-0.1511978656,0.2930407822,0.139923051
0.08,-0.4030494988,-0.3035751879,9.700913429,-0.1563116908,0.2994984984,0.1452288479
0.082,-0.4446415603,-0.3198174834,9.685474396,-0.161565125,0.3055897057,0.1511629671
0.084,-0.4722323418,-0.3409630358,9.663553238,-0.1662251502,0.311227113,0.1576904953
0.086,-0.4922766089,-0.3544855118,9.658276558,-0.1696983576,0.3160442114,0.1644449234
0.088,-0.5354488492,-0.3751139641,9.648077011,-0.1723687202,0.3208613396,0.1719323844
0.09,-0.5668799281,-0.3820762932,9.637456894,-0.173782438,0.3259576857,0.1800307184
0.092,-0.6000635624,-0.3827179372,9.630427361,-0.1746550947,0.3308795094,0.188687548
0.094,-0.6122452617,-0.3725473583,9.631097794,-0.1743932962,0.3354173601,0.1979028881
0.096,-0.6305561066,-0.3625587523,9.624911308,-0.1730144918,0.3388382196,0.2066993415
0.098,-0.6418950558,-0.3453492522,9.601036072,-0.1711993515,0.3418052793,0.2150071114
0.1,-0.6502172947,-0.3392871022,9.586479187,-0.169506371,0.3445978165,0.2234545052
0.102,-0.6561357379,-0.3434625864,9.570026398,-0.1678832173,0.3476172388,0.2325651199
0.104,-0.6712479591,-0.3683144152,9.557623863,-0.1656317413,0.3517012894,0.2419549972
0.106,-0.6981396675,-0.3887225986,9.553361893,-0.1628217697,0.3558726311,0.2505071163
0.108,-0.7067300677,-0.4022737741,9.554186821,-0.1591565758,0.3604279459,0.2593559325
0.11,-0.7262379527,-0.4416440129,9.551887512,-0.1560847908,0.3654370308,0.2683269083
0.112,-0.7364563942,-0.4767142832,9.560564041,-0.1541998386,0.3709348142,0.2764077783
0.114,-0.7340430617,-0.5159313083,9.573435783,-0.1521752626,0.3763453364,0.2844188511
0.116,-0.7252611518,-0.5479370356,9.597981453,-0.1494525373,0.3807435632,0.2924124599
0.118,-0.7213346362,-0.5784678459,9.624192238,-0.1464505792,0.3850719929,0.3000919223
0.12,-0.7172932625,-0.5838882923,9.648431778,-0.1433438957,0.3893480599,0.307631731
0.122,-0.6908229589,-0.6113833785,9.681700706,-0.1411273181,0.3932924867,0.3151192069
0.124,-0.6843873262,-0.6281427741,9.694324493,-0.1399055868,0.3974289298,0.3216467202
0.126,-0.6583288312,-0.6443562508,9.71191597,-0.1384744197,0.4010068476,0.3274586797
0.128,-0.6096786261,-0.644528687,9.721216202,-0.1369385272,0.4043578804,0.3329739273
0.13,-0.5739284754,-0.6593631506,9.726243019,-0.1359960586,0.4085641205,0.3386985958
0.132,-0.5386571288,-0.6675226092,9.733148575,-0.1359262466,0.4118627906,0.3457671702
0.134,-0.5017384887,-0.6692751646,9.730351448,-0.1365371048,0.4131892323,0.3527484834
0.136,-0.4648773372,-0.678085804,9.740885735,-0.1370956153,0.4146902263,0.3590491414
0.138,-0.4356202185,-0.6821559668,9.747810364,-0.1370083392,0.4168718755,0.366047889
0.14,-0.4037390053,-0.6767067313,9.760796547,-0.1372876018,0.4180761576,0.3729943037
0.142,-0.3602028489,-0.6689303517,9.780506134,-0.1383522451,0.4182507098,0.3792949617
0.144,-0.3443436623,-0.6574860811,9.802839279,-0.139399454,0.4183205068,0.3856479526
0.146,-0.3220105469,-0.6503609419,9.810595512,-0.1401499361,0.4183554053,0.3920184076
0.148,-0.3241270185,-0.6565475464,9.815000534,-0.1420348883,0.4183554053,0.398406297
0.15,-0.3523594737,-0.676697135,9.854687691,-0.1447052509,0.4177445471,0.4050909281
0.152,-0.3443245292,-0.6839085221,9.880458832,-0.1467298269,0.4171685874,0.4113042951
0.154,-0.3405512273,-0.7020469904,9.892419815,-0.1481784582,0.4166100919,0.4169766009
0.156,-0.3421888649,-0.7155023813,9.923716545,-0.1491034776,0.4164006412,0.4227710962
0.158,-0.3269330561,-0.7238724828,9.956537247,-0.1507266313,0.4172558486,0.4285830557
0.16,-0.3199228346,-0.74119699,9.989720345,-0.1523323357,0.417290777,0.4344299138
0.162,-0.2999359965,-0.7801554203,10.02550888,-0.1533097178,0.4169766009,0.440276742
0.164,-0.2693189681,-0.7985619903,10.04850292,-0.1543394625,0.4162261188,0.4458268881
0.166,-0.2690029442,-0.8046241403,10.06099129,-0.1557008177,0.4146553278,0.4512374103
0.168,-0.2649711072,-0.8371278048,10.08912754,-0.1572018117,0.4127529263,0.4569097459
0.17,-0.253632158,-0.8828379512,10.12143898,-0.1574985087,0.4103967249,0.4623726308
0.172,-0.2733316422,-0.9159353375,10.12835407,-0.1566781998,0.4078660011,0.4677482247
0.174,-0.2805812955,-0.9630053639,10.14024925,-0.1563465893,0.4058937728,0.4737347066
0.176,-0.274174422,-1.009299636,10.14604282,-0.1562069654,0.4041309953,0.4796339273
0.178,-0.2733029127,-1.059194803,10.14561176,-0.1555088311,0.402158767,0.4852015376
0.18,-0.2872084379,-1.111359715,10.1509552,-0.1542870998,0.4016700685,0.4915719926
0.182,-0.2976279855,-1.160919666,10.16306019,-0.1522101611,0.4021064043,0.4976282716
0.184,-0.3053373396,-1.192226171,10.16820335,-0.1500983089,0.4025951028,0.5032482147
0.186,-0.3181606829,-1.218667865,10.14936638,-0.1476723105,0.4037470222,0.5093219876
0.188,-0.3456748426,-1.265565395,10.12024307,-0.1444609016,0.4054749012,0.515273571
0.19,-0.3890194595,-1.313267469,10.10486221,-0.1418952644,0.408075422,0.5208585858
0.192,-0.4285812676,-1.381617188,10.08412933,-0.1392772794,0.4113391936,0.5266007185
0.194,-0.452619046,-1.403050065,10.07168865,-0.1356818974,0.4136081338,0.5327268243
0.196,-0.4838968813,-1.441606283,10.04843521,-0.1317025423,0.4161213934,0.5393241644
0.198,-0.4803343117,-1.482441783,10.00029278,-0.1275486648,0.4187219441,0.5457819104
0.2,-0.6107225418,-1.557045221,9.996405602,-0.1236565784,0.4204148948,0.551890552
0.202,-0.675701201,-1.615616918,10.03912735,-0.1195375994,0.4220380783,0.5591162443
0.204,-0.7070652246,-1.67425561,10.02371788,-0.115017198,0.423661232,0.5667956471
0.206,-0.7522102594,-1.729245782,10.01756096,-0.1103397161,0.4258952439,0.5740213394
0.208,-0.7831242085,-1.775760293,10.0295887,-0.1062381938,0.428373605,0.5810549855
0.21,-0.7868592143,-1.810275078,10.0162096,-0.1029744223,0.4312883019,0.5874080062
0.212,-0.7126197219,-1.818396211,9.973296165,-0.09882054478,0.4349884093,0.5934468508
0.214,-0.6593631506,-1.853370786,9.943818092,-0.09365436435,0.4390201271,0.6000267267
0.216,-0.6039326191,-1.878787518,9.909285545,-0.08838347346,0.443505615,0.6064844728
0.218,-0.6830083132,-1.897040844,9.946643829,-0.08340928704,0.4484972656,0.6122614741
0.22,-0.6996431947,-1.930425644,10.05620193,-0.07822565734,0.4536808729,0.6190508008
0.222,-0.6855940223,-1.980895519,10.08415699,-0.07201228291,0.4586201608,0.6268524528
0.224,-0.7077835202,-2.017670393,10.13187885,-0.06632251292,0.4628438652,0.6347587705
0.226,-0.7044507265,-2.039735317,10.20327377,-0.0611737892,0.4664566815,0.6420891881
0.228,-0.6740443707,-2.065085173,10.23222446,-0.05527457595,0.4701393247,0.6494893432
0.23,-0.6357946396,-2.112356186,10.23997211,-0.04878195375,0.4741710424,0.6578669548
0.232,-0.5863399506,-2.158717632,10.26480484,-0.04171336815,0.4789532423,0.6657034755
0.234,-0.5296739936,-2.199543476,10.28351784,-0.03504621238,0.4843812287,0.6729815006
0.236,-0.4804109633,-2.242945671,10.3042326,-0.02823942713,0.4887969196,0.6800500751
0.238,-0.4343082011,-2.283895969,10.32751369,-0.02008873969,0.4915370643,0.6876772046
0.24,-0.3715226352,-2.31556654,10.34328651,-0.01141445339,0.493614018,0.6961420178
0.242,-0.2626630962,-2.376532555,10.37743759,-0.003141592722,0.495708406,0.7039960027
0.244,-0.2336740941,-2.399852037,10.38615227,0.004625122529,0.4975235462,0.7113089561
0.246,-0.1793065518,-2.431915283,10.42088795,0.01315978263,0.4995132387,0.7180633545
0.248,-0.1259541661,-2.483333111,10.45925236,0.02199114859,0.5019043088,0.7236658931
0.25,-0.07163451612,-2.538188934,10.49603653,0.03127630055,0.504766643,0.7290938497
0.252,-0.03430412337,-2.598618746,10.53040791,0.04105014354,0.507838428,0.7347661853
0.254,-0.007086836733,-2.665368795,10.56831264,0.05038765445,0.5103342533,0.7405606508
0.256,0.006952761672,-2.716049671,10.6103363,0.0595680885,0.5126206279,0.7460758686
0.258,0.01812889427,-2.766193628,10.63926792,0.06897541136,0.5148197412,0.7514689565
0.26,0.03808695823,-2.813991547,10.66247177,0.07754497975,0.5160240531,0.7561988235
0.262,0.06475836784,-2.856895447,10.68349361,0.08670795709,0.5161985755,0.7609635592
0.264,0.0947529301,-2.89655304,10.69796371,0.0973893702,0.5159542561,0.765745759
0.266,0.1074421927,-2.929736853,10.69686222,0.1074075624,0.514592886,0.7705279589
0.268,0.1218265593,-2.957126379,10.68658638,0.1159073189,0.5127777457,0.7756243348
0.27,0.1470710188,-2.990108967,10.66543198,0.1237962022,0.5107706189,0.7796036601
0.272,0.1854931712,-3.036652088,10.63574314,0.1326799244,0.5077511668,0.7846825719
0.274,0.1948018372,-3.045731068,10.62626171,0.1413542181,0.5039986968,0.7908610702
0.276,0.2045605928,-3.079316854,10.60377502,0.148981303,0.4989896417,0.7965333462
0.278,0.2104120106,-3.126157045,10.58358765,0.1546187252,0.4938060045,0.8013679385
0.28,0.2032485604,-3.160451651,10.55608273,0.1594358236,0.4888492823,0.8068133593
0.282,0.1894484013,-3.195024014,10.53023529,0.1661204398,0.4811523557,0.8147022128
0.284,0.2007490247,-3.232191324,10.49954224,0.1729621291,0.4720242918,0.8236033916
0.286,0.1929056197,-3.265327215,10.4705143,0.1792104095,0.4632453024,0.8316319585
0.288,0.1763377339,-3.300952911,10.43681335,0.1842718571,0.4555833042,0.8383863568
0.29,0.1741733849,-3.337095737,10.40339088,0.1869771183,0.4483576417,0.8455421925
0.292,0.1701319665,-3.411392689,10.35810184,0.1902757883,0.4384616017,0.8544608355
0.294,0.1793831587,-3.44610858,10.34314251,0.1938362718,0.4271867871,0.8634492755
0.296,0.1969853342,-3.514640093,10.31080151,0.1959132105,0.4156501591,0.8718442917
0.298,0.2156601101,-3.568490505,10.28461933,0.1977109015,0.4043229818,0.8799949884
0.3,0.2026260793,-3.626650572,10.27613354,0.199700579,0.3956137896,0.8867843151
0.302,0.1921203136,-3.705668688,10.27479267,0.2014633566,0.3860668242,0.8930326104
0.304,0.18960163,-3.778548241,10.26770592,0.20343557,0.3736575246,0.8999790549
0.306,0.1765867472,-3.827552795,10.25562,0.2051809132,0.3629237711,0.9056513309
0.308,0.1623939127,-3.871596336,10.26654816,0.2062106431,0.3528706729,0.9108000398
0.31,0.146754995,-3.926519632,10.27168083,0.2075894624,0.3418401778,0.9170134664
0.312,0.1255806684,-3.979718685,10.27067471,0.2103470862,0.3281916976,0.923628211
0.314,0.132571727,-4.013869762,10.26217079,0.2143089771,0.3134785891,0.9301208854
0.316,0.1535449326,-4.039975643,10.25484467,0.2181312442,0.3008773029,0.936229527
0.318,0.1661863178,-4.071828365,10.23586369,0.2206445187,0.2909987569,0.9415527582
0.32,0.1752747148,-4.086892605,10.2157135,0.2222851366,0.2816088796,0.9456194043
0.322,0.1721143574,-4.093941212,10.19732571,0.2254790813,0.2692694068,0.9498081803
0.324,0.166511938,-4.083818436,10.1712389,0.2293188125,0.2576280534,0.9540318847
0.326,0.1584865749,-4.076616764,10.14270973,0.2324429452,0.2490933836,0.9570164084
0.328,0.1407982111,-4.075774193,10.1211338,0.2365619242,0.2421469837,0.9598088861
0.33,0.1202368066,-4.068878651,10.11056995,0.2417106479,0.2361605018,0.9625141621
0.332,0.08995494992,-4.040924072,10.10149097,0.2479065657,0.2296329737,0.96551615
0.334,0.06727706641,-4.025476456,10.08088207,0.2551671267,0.2225469351,0.9686402678
0.336,0.04932055622,-4.016675472,10.05135632,0.2615899444,0.2177647352,0.9702110887
0.338,0.0234248694,-4.01257658,10.02004147,0.266738683,0.2145707756,0.9714851379
0.34,0.00821689982,-4.004225731,9.98110199,0.2719921172,0.211673528,0.9729512334
0.342,-0.02602976002,-3.999791861,9.923640251,0.2775946259,0.2089333683,0.9738762379
0.344,-0.05945281684,-3.996822834,9.877260208,0.2846108377,0.2068564296,0.9739286304
0.346,-0.09518388659,-4.001400471,9.8346138,0.2912605405,0.2057045102,0.9736319184
0.348,-0.1346020252,-4.001783848,9.801555634,0.2958507538,0.2049190998,0.9735097289
0.35,-0.1797949672,-3.999025583,9.773389816,0.3008773029,0.2055474222,0.9737889767
0.352,-0.2139650136,-4.008841991,9.73015976,0.3060958385,0.2070658654,0.9732654095
0.354,-0.234794572,-4.021751404,9.683454514,0.3119950593,0.2092649788,0.9714677334
0.356,-0.2626534998,-4.014894485,9.648728371,0.3175626695,0.2120400518,0.9697921872
0.358,-0.2889801264,-4.003651142,9.595663071,0.321716547,0.2150769234,0.9681690335
0.36,-0.3088999093,-3.992072821,9.538058281,0.3256086111,0.2182010561,0.9668600559
0.362,-0.3273927271,-3.985675573,9.481909752,0.3290992677,0.221045956,0.9657081366
0.364,-0.3433093429,-3.977075338,9.424401283,0.3323979676,0.2241002768,0.9646085501
0.366,-0.3401969075,-3.960478783,9.361769676,0.3343876302,0.2266135514,0.9641547799
0.368,-0.3293942511,-3.954215527,9.290411949,0.3348763287,0.2282541543,0.9642944336
0.37,-0.3402160704,-3.936795473,9.225385666,0.3353824615,0.2292490005,0.9646609426
0.372,-0.3538438678,-3.91524744,9.165501595,0.3355919123,0.2299645841,0.9648180008
0.374,-0.3512293994,-3.89901495,9.117081642,0.3353650272,0.2293188125,0.9658128619
0.376,-0.3461345136,-3.886938572,9.076341629,0.3349635899,0.22778292,0.9674883485
0.378,-0.3527137935,-3.87742877,9.041367531,0.3341607451,0.2258979678,0.9691115022
0.38,-0.3675099611,-3.86372447,9.021294594,0.3332008123,0.2235592157,0.971363008
0.382,-0.3827083409,-3.852854729,8.999938011,0.3328168392,0.2206968814,0.9735271931
0.384,-0.3923138976,-3.845767736,8.98154068,0.3329739273,0.2148151249,0.9760055542
0.386,-0.3984526396,-3.84942627,8.965768814,0.332729578,0.2086192071,0.9785886407
0.388,-0.4014405906,-3.855000019,8.941375732,0.3313507438,0.2032610476,0.9812066555
0.39,-0.3980025053,-3.863082647,8.91894722,0.3292214572,0.1950929016,0.9841737151
0.392,-0.3937408328,-3.879487753,8.893741608,0.3280346394,0.1848129183,0.9869487882
0.394,-0.3874201477,-3.876241207,8.87439537,0.327563405,0.1702219546,0.9902998209
0.396,-0.3795480132,-3.883510113,8.854696274,0.3260973096,0.1529082954,0.994191885
0.398,-0.3693008125,-3.893661261,8.828514099,0.3239330947,0.139242366,0.9979792833
0.4,-0.3522157967,-3.891612053,8.806324005,0.3214721978,0.1261000335,1.001731753
0.402,-0.3511527777,-3.887235403,8.788319588,0.3185749352,0.110968031,1.0054667
0.404,-0.351459235,-3.877275705,8.769779205,0.3142290711,0.0927991569,1.010772467
0.406,-0.3594558835,-3.869125843,8.750873566,0.3093072474,0.07595673203,1.016409993
0.408,-0.3665714562,-3.855287075,8.737132072,0.3044726849,0.06087708473,1.020598769
0.41,-0.3950720131,-3.850546598,8.719931602,0.2983989418,0.04307472706,1.025450706
0.412,-0.4271638691,-3.843613148,8.698604584,0.2911907434,0.02476622164,1.030599475
0.414,-0.4650688767,-3.835817575,8.674633026,0.2831971347,0.006911503617,1.035835505
0.416,-0.4968064129,-3.829075336,8.65607357,0.2758492827,-0.009826203808,1.041437984
0.418,-0.5221754313,-3.808063984,8.633586884,0.2678033113,-0.02642428502,1.046883345
0.42,-0.5415492654,-3.802040339,8.607461929,0.2582214475,-0.04295255244,1.052573204
0.422,-0.5453034043,-3.780636072,8.575292587,0.2486395985,-0.05948081985,1.057721853
0.424,-0.5320682526,-3.748285532,8.534936905,0.2374694943,-0.07850491256,1.062661171
0.426,-0.5184596181,-3.715925455,8.497567177,0.2269277126,-0.09510298818,1.067513227
0.428,-0.4991336167,-3.690489531,8.464881897,0.2169618756,-0.1087863743,1.072644472
0.43,-0.4755554795,-3.680108309,8.434082985,0.2072229385,-0.1216319948,1.077583671
0.432,-0.4702212214,-3.658339977,8.404835701,0.1985137463,-0.1322261393,1.081475854
0.434,-0.4605869353,-3.628384113,8.370895386,0.1883559376,-0.1418952644,1.086223125
0.436,-0.4709969461,-3.597364664,8.332176208,0.1772730947,-0.1499412358,1.091302037
0.438,-0.4827572703,-3.573403597,8.289971352,0.1661204398,-0.1566781998,1.095595479
0.44,-0.5049275756,-3.549126148,8.251578331,0.1562244147,-0.1629090309,1.099539995
0.442,-0.5297793746,-3.523067951,8.205513954,0.1474628747,-0.1679530293,1.103676438
0.444,-0.5564507842,-3.497794628,8.171410561,0.1397834122,-0.1712691635,1.107254386
0.446,-0.5783337951,-3.470979452,8.130239487,0.1335176826,-0.1735729873,1.109977007
0.448,-0.5964244008,-3.427615643,8.08204937,0.1274788529,-0.1742013097,1.112333179
0.45,-0.6059054136,-3.392689228,8.04904747,0.122504659,-0.1741314977,1.113624811
0.452,-0.623344779,-3.342247963,8.026024818,0.1195375994,-0.1734682769,1.113816738
0.454,-0.6573424935,-3.295790911,8.000531197,0.117373392,-0.1716356725,1.113903999
0.456,-0.6766492724,-3.236749887,7.970948696,0.1161865667,-0.168982774,1.112996459
0.458,-0.6857568622,-3.199342966,7.932708263,0.1163261905,-0.1660157144,1.111670017
0.46,-0.6851343513,-3.171120167,7.902081966,0.1166927144,-0.1625948697,1.110832214
0.462,-0.7006296515,-3.134977341,7.845990658,0.1171639487,-0.1589994878,1.108894944
0.464,-0.7201949954,-3.101774454,7.780303001,0.1192583442,-0.1559451669,1.107167006
0.466,-0.7414268255,-3.064951658,7.716655731,0.1219985113,-0.1528210342,1.105840564
0.468,-0.7453532815,-3.035895824,7.655258656,0.1234296858,-0.1496445239,1.103397131
0.47,-0.7597376704,-3.033807755,7.591180325,0.1252797395,-0.1467821896,1.101145625
0.472,-0.7920402288,-3.034535646,7.535146713,0.128229335,-0.1430820972,1.099278212
0.474,-0.820607841,-3.019950151,7.481018543,0.1310218722,-0.1381078959,1.096625328
0.476,-0.8534371257,-2.997138262,7.418079376,0.1337271333,-0.1341983676,1.093972325
0.478,-0.8869559169,-2.96650219,7.353962898,0.1367290914,-0.1310218722,1.091302037
0.48,-0.9229742885,-2.950710058,7.288428783,0.1401499361,-0.1281420738,1.088334918
0.482,-0.9490041137,-2.918991566,7.218326569,0.1443910897,-0.1257160604,1.086484909
0.484,-0.9756946564,-2.891803026,7.144719124,0.1499063224,-0.1240929067,1.085106134
0.486,-1.022017598,-2.876345873,7.066955566,0.1543569118,-0.1237612963,1.083901763
0.488,-1.059453368,-2.862229824,6.983551502,0.1574286968,-0.1236216724,1.083430529
0.49,-1.086594105,-2.8435359,6.900290489,0.1609019041,-0.1241801754,1.083221197
0.492,-1.119155288,-2.834983826,6.799111366,0.1632580906,-0.1244245246,1.083465457
0.494,-1.160670638,-2.811089516,6.711301804,0.1661029905,-0.1251401007,1.08418107
0.496,-1.19918859,-2.804711342,6.619239807,0.1697856337,-0.1279675364,1.084791899
0.498,-1.248872995,-2.797576904,6.5359025,0.1728748679,-0.1319643408,1.084739566
0.5,-1.299457788,-2.78027153,6.457353592,0.1760164499,-0.1376890242,1.084390521
0.502,-1.324529767,-2.748476505,6.380547523,0.1782504767,-0.1447576135,1.08487916
0.504,-1.346326709,-2.706491709,6.297708035,0.1804146916,-0.1520530879,1.086031079
0.506,-1.36285615,-2.669075251,6.222663879,0.1831897646,-0.1597499847,1.087444782
0.508,-1.394660711,-2.619017363,6.138196945,0.1855808645,-0.1688780636,1.089277387
0.51,-1.434672713,-2.56179595,6.061122417,0.1887748092,-0.17954202,1.091930389
0.512,-1.4758147,-2.496826649,6.002349377,0.1932253987,-0.1914626211,1.094583273
0.514,-1.506096601,-2.430200815,5.943644047,0.1981821358,-0.2048318386,1.097236156
0.516,-1.540477276,-2.38573575,5.895328999,0.2033657581,-0.2191086262,1.100203156
0.518,-1.568125486,-2.350713491,5.862509251,0.2079908848,-0.2334552407,1.102681518
0.52,-1.586886525,-2.306075811,5.831585884,0.2117782533,-0.247487694,1.10557878
0.522,-1.597890258,-2.261706591,5.809817791,0.2152165473,-0.261415422,1.108982205
0.524,-1.607936263,-2.226195812,5.79350853,0.2178694457,-0.2749766111,1.112245917
0.526,-1.615214586,-2.198107004,5.791267395,0.2195798755,-0.2890090644,1.11547482
0.528,-1.618461132,-2.167911291,5.778262138,0.2199638486,-0.3041934371,1.118372083
0.53,-1.612073541,-2.117642641,5.771769047,0.2194925994,-0.319534868,1.121757984
0.532,-1.586311936,-2.068034887,5.763695717,0.2183581442,-0.3349286914,1.125650048
0.534,-1.548215389,-2.032380342,5.749158382,0.2150420099,-0.3522423506,1.129769087
0.536,-1.524225473,-1.998918891,5.73630619,0.2114989907,-0.367182374,1.133975267
0.538,-1.495514154,-1.959443331,5.729410648,0.2084621191,-0.3786317408,1.137256503
0.54,-1.449401855,-1.918071628,5.724516869,0.204709664,-0.3908664882,1.139857054
0.542,-1.398309588,-1.889369845,5.711961746,0.200660497,-0.4031012356,1.142806649
0.544,-1.346700191,-1.861693025,5.70463562,0.1958433986,-0.4140793681,1.145599246
0.546,-1.28621304,-1.831966519,5.698439598,0.1904154271,-0.4239230156,1.146402121
0.548,-1.236605167,-1.78740561,5.686640739,0.1850572526,-0.4329638183,1.146419525
0.55,-1.19108665,-1.746455193,5.675665855,0.1790882349,-0.4407654405,1.146751165
0.552,-1.145165801,-1.702861547,5.672553062,0.1734857261,-0.4480260313,1.146559119
0.554,-1.089285135,-1.653799534,5.662919044,0.168686077,-0.4547804296,1.143958569
0.556,-1.037216067,-1.590966225,5.641218185,0.163589716,-0.4613254368,1.140066504
0.558,-0.9943981171,-1.522769809,5.620120049,0.1592961997,-0.4677656889,1.13753581
0.56,-0.9550758004,-1.462445378,5.606272697,0.1562942266,-0.4732285738,1.134289503
0.562,-0.9101414084,-1.407043576,5.60053587,0.1544267386,-0.4789358079,1.129175663
0.564,-0.856166482,-1.347370505,5.600047588,0.1533620805,-0.4850269854,1.123625517
0.566,-0.8145552874,-1.305778384,5.595795631,0.1526115835,-0.4906818569,1.117272496
0.568,-0.7816685438,-1.262108207,5.604825974,0.1516691148,-0.4958131313,1.109942079
0.57,-0.7626298666,-1.209751844,5.61146307,0.1509709805,-0.5007523894,1.103170276
0.572,-0.7444148064,-1.172670364,5.596360207,0.1506917328,-0.5052728057,1.096625328
0.574,-0.7203387022,-1.129957914,5.574075222,0.150255397,-0.5086936355,1.088596702
0.576,-0.7176667452,-1.080618143,5.56652832,0.150709182,-0.5113640428,1.079329014
0.578,-0.7131560445,-1.04300046,5.539627552,0.1505870074,-0.5140169263,1.069258451
0.58,-0.7049487233,-1.015122414,5.512285709,0.1492605507,-0.5170014501,1.05915308
0.582,-0.6865996122,-0.9940055013,5.456155777,0.1490511149,-0.5204222798,1.049675941
0.584,-0.681035459,-0.9557461739,5.390257835,0.1495921761,-0.5243318081,1.040128946
0.586,-0.670127511,-0.9257898927,5.320193768,0.1504473835,-0.528136611,1.03025043
0.588,-0.6717172265,-0.8728876114,5.244996548,0.1517389268,-0.5322032571,1.020232201
0.59,-0.6806811094,-0.8303282857,5.166514874,0.1535191536,-0.5367062092,1.010161638
0.592,-0.6876721978,-0.7831625342,5.09798336,0.1558404416,-0.5416978598,1.000370383
0.594,-0.7028706074,-0.7407277226,5.034068108,0.1592961997,-0.5465673208,0.9913470149
0.596,-0.7410437465,-0.6910815239,4.960144043,0.1635548025,-0.5516985655,0.9826203585
0.598,-0.8083591461,-0.6280853152,4.889946461,0.167481795,-0.5575803518,0.9740158916
0.6,-0.8743911982,-0.5761502981,4.813916206,0.1719323844,-0.5640904307,0.9657779336
0.602,-0.9308465123,-0.5181818604,4.74469471,0.1765749604,-0.5701990724,0.9586395621
0.604,-0.9924636483,-0.4634408355,4.639474392,0.1806764901,-0.5758364797,0.9528974295
0.606,-1.060775042,-0.4009713233,4.569400787,0.1848827302,-0.5835159421,0.9483420849
0.608,-1.143202662,-0.3311181068,4.509363651,0.189734742,-0.5923123956,0.9442754984
0.61,-1.216292739,-0.2654212117,4.439500809,0.1945693046,-0.6009517908,0.9401041269
0.612,-1.284048676,-0.177563563,4.381561756,0.1996831149,-0.6101322174,0.9358804226
0.614,-1.353911519,-0.0858656466,4.326734543,0.2058615834,-0.6214593649,0.9313076735
0.616,-1.418487906,0.01144428458,4.270125866,0.2115513533,-0.6314252019,0.9269269109
0.618,-1.477988601,0.1020696089,4.216821194,0.2167000771,-0.6392791867,0.9226159453
0.62,-1.507858634,0.1922160983,4.182478905,0.2228959948,-0.6475171447,0.9186540246
0.622,-1.541818023,0.2891142368,4.147657871,0.2291966379,-0.6543588638,0.9151459336
0.624,-1.588849783,0.3829860985,4.107406139,0.2339788377,-0.659978807,0.9118298292
0.626,-1.618528247,0.4772889018,4.097120762,0.2387610376,-0.6657384038,0.9095259905
0.628,-1.624762654,0.5556558967,4.094534874,0.2445031703,-0.6718645096,0.9073268771
0.63,-1.625921488,0.6086634994,4.105950832,0.2487268746,-0.677519381,0.9051800966
0.632,-1.620740533,0.6420482993,4.121417046,0.2523571551,-0.6826506257,0.9033474922
0.634,-1.614774227,0.6774920821,4.150051594,0.2557081878,-0.6869615912,0.9023002982
0.636,-1.612964153,0.7153300047,4.176799774,0.258343637,-0.689335227,0.9018639922
0.638,-1.585526586,0.7528902292,4.215068817,0.2622531652,-0.6890559793,0.9001011848
0.64,-1.550034881,0.7744380236,4.258307934,0.2660579979,-0.6873455644,0.8968723416
0.642,-1.489308357,0.8001326323,4.3021698,0.2679255009,-0.6847624779,0.8924043179
0.644,-1.420154333,0.8212303519,4.347056389,0.2696359158,-0.6811845303,0.8874126673
0.646,-1.347083211,0.8399050832,4.392718315,0.2715906799,-0.6762627363,0.8825432062
0.648,-1.258143425,0.8599398136,4.441081524,0.2723760903,-0.66889745,0.8786685467
0.65,-1.154627681,0.8782410622,4.49131155,0.2717652023,-0.6602057219,0.8764694333
0.652,-1.062441349,0.9115492105,4.536217213,0.2693043053,-0.6484596133,0.8739910722
0.654,-0.9660891294,0.9516856074,4.576765537,0.2660928965,-0.6361026764,0.8714079857
0.656,-0.8536861539,0.9728791118,4.62349081,0.2625673413,-0.6254038215,0.8694008589
0.658,-0.7320702672,0.9855587482,4.661961079,0.2582912743,-0.6147224307,0.867323935
0.66,-0.616210103,0.9923200011,4.707527161,0.2524618804,-0.6043900847,0.8652120829
0.662,-0.508528471,0.9924157858,4.75350523,0.246283412,-0.5932374001,0.861843586
0.664,-0.4023025036,0.9939863086,4.796888828,0.2409427017,-0.5814389586,0.8563632369
0.666,-0.3210337162,0.9835476279,4.83821249,0.2343453616,-0.5693787336,0.8506560326
0.668,-0.2449938655,0.9807512164,4.878243446,0.2278701812,-0.5565680265,0.8448615074
0.67,-0.1628536135,0.9636374712,4.924547195,0.2220756859,-0.5425181389,0.8371297121
0.672,-0.09232041985,0.9546352625,4.967690945,0.2159321308,-0.5276479125,0.8289441466
0.674,-0.04428315535,0.9645280838,5.013046265,0.2099631131,-0.5124461055,0.8221373558
0.676,0.01651041396,0.9845052958,5.071139812,0.2040464431,-0.4967730641,0.8165173531
0.678,0.06426995248,0.9891883731,5.106564045,0.198496297,-0.4818854034,0.8117177486
0.68,0.1009970009,1.008092999,5.142678261,0.1937140971,-0.4679227769,0.8066039085
0.682,0.1363162696,1.053314686,5.175239086,0.1895427555,-0.4534190893,0.8013679385
0.684,0.1625471413,1.102079749,5.195149422,0.1865931451,-0.4402418435,0.7963937521
0.686,0.1840279251,1.138873935,5.204649925,0.185388878,-0.4298397005,0.7918384075
0.688,0.196420297,1.173474908,5.212665558,0.1849001795,-0.419908762,0.7871434689
0.69,0.2050011307,1.204877138,5.219656944,0.183434099,-0.4108330607,0.7820820212
0.692,0.1999637336,1.256189704,5.235343456,0.18284069,-0.4033455849,0.777805984
0.694,0.1787319481,1.308641911,5.252323151,0.1835562736,-0.3949156404,0.7741757035
0.696,0.1551059633,1.355644941,5.265711308,0.1844638437,-0.386136651,0.7708072066
0.698,0.1188290194,1.389786243,5.26206255,0.1864186227,-0.3787713647,0.7675434351
0.7,0.07110778987,1.440198541,5.25863409,0.1891064197,-0.3722961843,0.7640004158
0.702,0.02495715953,1.487814426,5.245150089,0.1924050897,-0.364930898,0.7593927383
0.704,-0.02292687632,1.529310703,5.221543312,0.1953372508,-0.3578273952,0.7553261518
0.706,-0.05896440148,1.565319419,5.192324162,0.1971523911,-0.3530451953,0.7533364892
0.708,-0.08118259162,1.618863344,5.170728683,0.1994736791,-0.3495196402,0.7506486773
0.71,-0.1007001251,1.684799671,5.160223007,0.2023185641,-0.3471285403,0.7463900447
0.712,-0.1301105022,1.746349812,5.152819633,0.2050412744,-0.3458544314,0.7421314716
0.714,-0.1543110758,1.805898428,5.152839184,0.2083748579,-0.3450166881,0.7375586629
0.716,-0.1781573296,1.866739869,5.161975384,0.2112895548,-0.345610112,0.7322179675
0.718,-0.2054033577,1.919239998,5.167750359,0.2137504667,-0.3493276536,0.7268947363
0.72,-0.2323141843,1.947941661,5.168143272,0.2169618756,-0.3543193042,0.7209431529
0.722,-0.2449459881,1.964950085,5.154400349,0.2201558352,-0.3588745892,0.7134731412
0.724,-0.2860209048,2.007969141,5.162492752,0.2236813903,-0.3638837039,0.7053748369
0.726,-0.3031059206,2.041621923,5.152322292,0.2269975245,-0.3693989217,0.6973463297
0.728,-0.3345848918,2.071032524,5.147255898,0.2296155095,-0.3763802648,0.689335227
0.73,-0.3490075767,2.103650808,5.136405468,0.2322509587,-0.385525763,0.6813416481
0.732,-0.36503914,2.148729086,5.120268345,0.2349038571,-0.3943047822,0.6733654737
0.734,-0.3641772568,2.197053432,5.088482857,0.2378883809,-0.4010243118,0.6650577188
0.736,-0.3786286414,2.261888504,5.048289299,0.2409950644,-0.4066093564,0.6566277742
0.738,-0.3554240465,2.326033831,4.999380589,0.2438225001,-0.4117231667,0.6478313208
0.74,-0.3249123096,2.427078962,4.969835758,0.2453060299,-0.4172733128,0.6388777494
0.742,-0.2938068509,2.520088911,4.951027393,0.2462136,-0.4233296216,0.6301860213
0.744,-0.2562944889,2.625586987,4.94896841,0.2465975732,-0.4292637408,0.6215990186
0.746,-0.2232736647,2.71467042,4.938491344,0.2461088747,-0.4348313212,0.6127501726
0.748,-0.1615319997,2.819383383,4.930398941,0.2462310493,-0.4399451315,0.6040933728
0.75,-0.1235791147,2.915084124,4.920266628,0.2469117343,-0.4448669851,0.5958204865
0.752,-0.05449203029,2.997320414,4.907902718,0.2484476119,-0.4484449029,0.5874080062
0.754,0.01636676304,3.066436052,4.91447258,0.2503325641,-0.4508360028,0.5786290169
0.756,0.09697474539,3.139784813,4.915573597,0.2523746192,-0.4524591565,0.5693613291
0.758,0.1893526316,3.209369898,4.904206276,0.2547831535,-0.4531049132,0.5602332354
0.76,0.2635058165,3.273754835,4.916205883,0.2573313415,-0.4533841908,0.551454246
0.762,0.3529244661,3.343090773,4.911015034,0.2596351802,-0.4534888864,0.5428497791
0.764,0.4416919053,3.40236187,4.902367115,0.2618342936,-0.4535238147,0.534594357
0.766,0.514015913,3.445352077,4.941028595,0.2639985085,-0.453541249,0.5268276334
0.768,0.5911284089,3.473392725,4.99562645,0.2661452591,-0.4532445371,0.520195365
0.77,0.6577733755,3.487107038,5.057454109,0.2679603994,-0.4537506998,0.5146452188
0.772,0.7148607373,3.504259109,5.145685673,0.2686934471,-0.4558450878,0.5095489025
0.774,0.7687686086,3.495141745,5.228457451,0.2689901292,-0.4585852623,0.504627049
0.776,0.8124675155,3.478018522,5.315424919,0.2687981427,-0.4616046846,0.5007349849
0.778,0.845536232,3.460148096,5.398063183,0.2665117681,-0.4650429785,0.497890085
0.78,0.8839105368,3.444930553,5.480653286,0.2624277174,-0.4686557949,0.4954640567
0.782,0.9308847785,3.436723471,5.539732456,0.2585530877,-0.471378535,0.4938583672
0.784,0.9582840204,3.42892766,5.594818592,0.2544515431,-0.4750262499,0.4916068912
0.786,1.004721999,3.420950174,5.630319595,0.2480461895,-0.4805938601,0.4885002077
0.788,1.064605713,3.42098856,5.654290676,0.2394417226,-0.486353457,0.4862836301
0.79,1.108496189,3.450284243,5.677073956,0.2312037647,-0.492793709,0.4847477376
0.792,1.126989007,3.484454155,5.697060585,0.2231228948,-0.500141561,0.4828628004
0.794,1.145491481,3.510119915,5.73839426,0.214151904,-0.5075591803,0.481780678
0.796,1.166014552,3.535393,5.781173229,0.2054427117,-0.5156226158,0.4813269079
0.798,1.16697216,3.55613637,5.817871571,0.1974840015,-0.5245935917,0.4811523557
0.8,1.176826835,3.565330267,5.861504078,0.1907644868,-0.5342452526,0.4820250273
0.802,1.204513311,3.553972244,5.906581402,0.1839402467,-0.5457469821,0.4830198586
0.804,1.233588457,3.549135923,5.955864429,0.176103726,-0.5589416623,0.4831071496
0.806,1.247216344,3.546962023,5.979509354,0.1688082516,-0.5725203753,0.482827872
0.808,1.253718853,3.53845787,6.031569004,0.1623679847,-0.5862560868,0.4823915362
0.81,1.271685004,3.528852224,6.085227489,0.1559626162,-0.599747479,0.4806287587
0.812,1.270621896,3.529867411,6.098270893,0.1498714238,-0.6131166816,0.4777140617
0.814,1.256122708,3.523824453,6.126206398,0.144565627,-0.6255085468,0.4746248424
0.816,1.249706268,3.529158592,6.152370453,0.139242366,-0.6362423301,0.470854938
0.818,1.236969113,3.538630009,6.181436062,0.1336049587,-0.6469237208,0.467102468
0.82,1.203526855,3.575395584,6.223258018,0.1275137514,-0.657884419,0.4643099308
0.822,1.198278785,3.582855701,6.241013527,0.1225221157,-0.6689847112,0.4609763622
0.824,1.195041895,3.605102777,6.273153305,0.1179668009,-0.6791774035,0.4573984444
0.826,1.216359854,3.673098087,6.32177496,0.1123119369,-0.689335227,0.454675734
0.828,1.24119246,3.729964972,6.352956772,0.1062381938,-0.7010464072,0.4520053566
0.83,1.264780164,3.772237062,6.390890598,0.1009149402,-0.7121117711,0.4490033984
0.832,1.289813995,3.79679203,6.4220438,0.09622000158,-0.7232644558,0.4462108612
0.834,1.314196467,3.807508469,6.46839571,0.0905302316,-0.7356737256,0.4431914687
0.836,1.338387489,3.822036505,6.513780117,0.08473573625,-0.7489382029,0.4397357106
0.838,1.354735136,3.830770493,6.539656639,0.07827802002,-0.7625517845,0.436768651
0.84,1.393818021,3.871385813,6.631660938,0.07091272622,-0.7769333124,0.4339761138
0.842,1.422931552,3.893048525,6.683711052,0.06380923837,-0.7916115522,0.4315675497
0.844,1.449315667,3.929986238,6.728338718,0.05649630725,-0.8061152101,0.4293335378
0.846,1.466410279,3.951170206,6.742282867,0.04846779257,-0.8221198916,0.4262093902
0.848,1.496050358,3.997569799,6.770467281,0.03953170776,-0.8393637538,0.4233645201
0.85,1.559104085,4.047771454,6.811983109,0.02925171889,-0.8574278951,0.4209385216
0.852,1.577893853,4.062739849,6.819864273,0.01719149388,-0.8758411407,0.4180587232
0.854,1.618183494,4.081165791,6.836346149,0.005323254038,-0.8950048089,0.4146902263
0.856,1.728067756,4.104351044,6.865056992,-0.006108652335,-0.9147968888,0.4110948443
0.858,1.798629642,4.122805595,6.879173279,-0.01898918301,-0.9354964495,0.4074296653
0.86,1.917219281,4.113554478,6.960193157,-0.03337069601,-0.9578017592,0.4034154117
0.862,1.946533799,4.107703209,6.996039391,-0.04775220901,-0.9807702899,0.3992440701
0.864,1.974957943,4.099716187,7.055846691,-0.06244787946,-1.00431478,0.3947062194
0.866,2.009702444,4.101296425,7.115356922,-0.07757988572,-1.02810359,0.3903428912
0.868,2.057931423,4.11629343,7.176456928,-0.09288642555,-1.051997185,0.3854036033
0.87,2.111005783,4.1690135,7.244873524,-0.1098684743,-1.075297356,0.3792949617
0.872,2.136192799,4.185169697,7.264429092,-0.1278104633,-1.096764922,0.3730117679
0.874,2.274031878,4.279635906,7.291282654,-0.1452288479,-1.117830992,0.366047889
0.876,2.338349819,4.346347809,7.282893658,-0.1608320922,-1.138705134,0.3578448594
0.878,2.372864485,4.374962807,7.282002926,-0.1750739813,-1.159195304,0.3494498134
0.88,2.446739912,4.427759647,7.278306007,-0.1881290376,-1.180156708,0.3397283256
0.882,2.555666685,4.489032269,7.243015766,-0.2000845522,-1.199739337,0.3281916976
0.884,2.601223707,4.490095139,7.228573799,-0.2109404951,-1.217820883,0.316550374
0.886,2.619199276,4.490794659,7.223957539,-0.2207143307,-1.234645963,0.3045425117
0.888,2.644003153,4.495659828,7.193723679,-0.2297551483,-1.249376535,0.2917667031
0.89,2.65564847,4.499461651,7.173057079,-0.2365968376,-1.263583422,0.2780483961
0.892,2.642643213,4.498762608,7.1808815,-0.2412568629,-1.277580976,0.2642602921
0.894,2.635661602,4.492154121,7.203789234,-0.2447475195,-1.28864634,0.2504372895
0.896,2.630250692,4.503158092,7.249288559,-0.2474178672,-1.296290994,0.2356543541
0.898,2.624830246,4.517647743,7.310101032,-0.2497740686,-1.300985932,0.2201732844
0.9,2.625165462,4.547863007,7.381659031,-0.2519906461,-1.302277446,0.2040813416
0.902,2.61908412,4.594769955,7.489589691,-0.2541722953,-1.30184114,0.1871167421
0.904,2.612648726,4.598390102,7.537876129,-0.2569473684,-1.299467444,0.1698030829
0.906,2.609603167,4.612726688,7.558465958,-0.2593384683,-1.296290994,0.1532748193
0.908,2.607007742,4.651129246,7.588403225,-0.2612583339,-1.293725252,0.1364498436
0.91,2.599126339,4.689455986,7.600259304,-0.2648711801,-1.288576603,0.1207593307
0.912,2.577252626,4.741228104,7.579535007,-0.269513756,-1.279553175,0.1080707833
0.914,2.561565876,4.758667469,7.568770409,-0.2742261291,-1.270809174,0.09501572698
0.916,2.526227474,4.7949543,7.548659325,-0.2805791199,-1.263478756,0.08054694533
0.918,2.495121956,4.82972765,7.529084682,-0.2882062197,-1.253862023,0.06707300246
0.92,2.469724417,4.911484241,7.492270947,-0.2966885269,-1.241732001,0.05464625731
0.922,2.457513809,4.944246769,7.479543686,-0.3070732355,-1.228589654,0.04297000542
0.924,2.425939322,4.997733593,7.452364922,-0.3195174336,-1.216302514,0.03220132366
0.926,2.377499819,5.052388191,7.439311504,-0.3343527317,-1.204992771,0.021834068
0.928,2.326206207,5.101076603,7.425798416,-0.3508111835,-1.193438649,0.01193805225
0.93,2.273409367,5.138885975,7.402469158,-0.3679328561,-1.18148315,0.002844886621
0.932,2.168035984,5.190505028,7.353426933,-0.3859446645,-1.169039011,-0.005881759338
0.934,2.09929347,5.206009865,7.323872566,-0.4049687386,-1.156071186,-0.01480039209
0.936,2.065420389,5.215998173,7.303033352,-0.4253192842,-1.144168019,-0.02443460934
0.938,1.956302285,5.199410915,7.262351036,-0.4462457895,-1.134271979,-0.03467969224
0.94,1.919048429,5.190006733,7.250935555,-0.4670675695,-1.125824571,-0.04515166581
0.942,1.843918324,5.168095112,7.230173111,-0.4887969196,-1.120187163,-0.05698499829
0.944,1.774189711,5.123160839,7.209037304,-0.5102644563,-1.117883325,-0.06970845163
0.946,1.7102741,5.087640285,7.204890251,-0.5300564766,-1.118214965,-0.08244935423
0.948,1.675012231,5.070957661,7.207705975,-0.5488362312,-1.120239615,-0.09553932399
0.95,1.646751046,5.063391685,7.213001728,-0.566586256,-1.124533057,-0.1090656221
0.952,1.639558911,5.077010155,7.224876881,-0.5832890272,-1.131968141,-0.1227839142
0.954,1.664324522,5.087343216,7.249240875,-0.597967267,-1.141305685,-0.1365720183
0.956,1.690948009,5.105826855,7.282261372,-0.6099402308,-1.152371049,-0.150709182
0.958,1.709373832,5.118917942,7.30173111,-0.6198711395,-1.16507709,-0.165614292
0.96,1.773203254,5.139929771,7.357975483,-0.6280043721,-1.178446293,-0.1817760468
0.962,1.878308773,5.176445961,7.441590786,-0.6338512301,-1.193054676,-0.1990897059
0.964,1.956081867,5.201067924,7.481018543,-0.6368532181,-1.209408402,-0.217817083
0.966,1.996151209,5.201796055,7.498562813,-0.6380923986,-1.226163626,-0.2371204346
0.968,2.112164736,5.190399647,7.516739845,-0.6376385689,-1.242150784,-0.2563365102
0.97,2.181117773,5.184098244,7.517438889,-0.6346191764,-1.257178068,-0.2771059275
0.972,2.200357676,5.183599949,7.511443615,-0.6289643049,-1.271803975,-0.2988178134
0.974,2.223188639,5.17138958,7.501608372,-0.6206740141,-1.287546873,-0.3199537694
0.976,2.248567104,5.153997898,7.493630886,-0.6103416085,-1.303743482,-0.3411944211
0.978,2.24912262,5.147255898,7.474975586,-0.5998347402,-1.318858027,-0.3634124696
0.98,2.226626635,5.146144867,7.466365814,-0.5886122584,-1.332593799,-0.3853861392
0.982,2.178033829,5.180956364,7.454700947,-0.5761506557,-1.344496965,-0.4066442549
0.984,2.163151503,5.189959049,7.449481964,-0.5631828308,-1.353747129,-0.4282514453
0.986,2.126491785,5.216371536,7.441887856,-0.5503371954,-1.359105349,-0.4506091177
0.988,2.080273867,5.266400814,7.437520504,-0.5384689569,-1.360955358,-0.4723384678
0.99,2.041296482,5.321007729,7.427101135,-0.527333796,-1.359506726,-0.4931776822
0.992,2.015007973,5.377654552,7.40686512,-0.5164778233,-1.355126023,-0.5136504173
0.994,1.978434205,5.424944878,7.374456882,-0.5070181489,-1.349244237,-0.5336693525
0.996,1.94090271,5.480030537,7.343744755,-0.4996877611,-1.341163397,-0.5544387698
0.998,1.857670665,5.533516884,7.319840908,-0.4951324463,-1.329993248,-0.5752081871
1.0,1.796771765,5.579361439,7.289654732,-0.4939107299,-1.317234874,-0.5947034955
1.002,1.793668866,5.673482418,7.196960926,-0.4949928224,-1.302574158,-0.612418592
1.004,1.731103659,5.738872528,7.131474495,-0.4976457357,-1.286499619,-0.6297322512
1.006,1.682443857,5.778386593,7.106680393,-0.5021835566,-1.269866705,-0.6468888521
1.008,1.641972303,5.812413216,7.053634167,-0.5087809563,-1.25108695,-0.6630156636
1.01,1.593436956,5.835062027,7.019598007,-0.5161985755,-1.231137753,-0.6790552735
1.012,1.539787769,5.865018368,7.017318726,-0.523947835,-1.210403323,-0.694745779
1.014,1.493953109,5.897866726,7.016160011,-0.5324650407,-1.189948082,-0.7102791667
1.016,1.445149779,5.923206806,7.022758961,-0.5409822464,-1.17122066,-0.7267027497
1.018,1.442717195,5.969501495,7.044220448,-0.5482428074,-1.153173923,-0.7438069582
1.02,1.447591782,6.025152206,7.048779011,-0.554351449,-1.135738134,-0.7608588338
1.022,1.457321882,6.058067799,7.064935207,-0.5593605638,-1.119157434,-0.7779107094
1.024,1.489519,6.09655714,7.066658497,-0.564247489,-1.104531646,-0.7952592969
1.026,1.530957937,6.136970997,7.060998917,-0.57002455,-1.091633677,-0.8121191263
1.028,1.580833912,6.174483299,7.055386543,-0.5752081871,-1.079433799,-0.828437984
1.03,1.62882328,6.207494736,7.057780743,-0.5798507333,-1.068473101,-0.8439190388
1.032,1.680269957,6.220404148,7.057503223,-0.5845806003,-1.058001161,-0.8578118682
1.034,1.75635767,6.235640526,7.049123764,-0.5890311599,-1.047756076,-0.8719839454
1.036,1.813157678,6.246194363,7.051651955,-0.5927312374,-1.038837433,-0.8869065046
1.038,1.870273829,6.251337528,7.063804626,-0.5945638418,-1.031123042,-0.9018115997
1.04,1.931565285,6.274436474,7.085170746,-0.5956110358,-1.024176598,-0.9167167544
1.042,1.977696776,6.291703701,7.10353899,-0.5963615775,-1.018207669,-0.9322501421
1.044,2.025360584,6.327013016,7.126896858,-0.5950874686,-1.012936711,-0.948359549
1.046,2.084631443,6.36438179,7.153932095,-0.5923647285,-1.008887529,-0.9621825814
1.048,2.155346632,6.411700726,7.171208382,-0.5874603987,-1.00534451,-0.9753772616
1.05,2.212242365,6.469611645,7.184846401,-0.5778959394,-1.004541755,-0.991486609
1.052,2.251928806,6.518903732,7.19698,-0.5651550889,-1.006426692,-1.007508755
1.054,2.285275221,6.568482876,7.225557327,-0.55114007,-1.00876534,-1.022239327
1.056,2.307713509,6.621116638,7.258070469,-0.5362698436,-1.01161027,-1.035817981
1.058,2.306372881,6.65816021,7.277099609,-0.5223421454,-1.013722181,-1.047337174
1.06,2.294507027,6.699751854,7.274839401,-0.5090776086,-1.016776443,-1.057704449
1.062,2.291969299,6.736258984,7.262763023,-0.4957956672,-1.020563841,-1.066972136
1.064,2.289239883,6.793346405,7.25752449,-0.4824962616,-1.023984671,-1.074546814
1.066,2.291538239,6.835685253,7.245754242,-0.4695110321,-1.02822578,-1.081405997
1.068,2.285830498,6.858641148,7.246424675,-0.4588645101,-1.032467008,-1.087357521
1.07,2.29680562,6.900261879,7.273939133,-0.4491604865,-1.035468936,-1.093256831
1.072,2.282880783,6.955289841,7.303138733,-0.4360530674,-1.039518118,-1.101651788
1.074,2.275822639,7.004849911,7.331380844,-0.4212526679,-1.044649363,-1.111373305
1.076,2.26127553,7.059887886,7.379504204,-0.4079706967,-1.048000455,-1.121024966
1.078,2.260251045,7.108490467,7.442873955,-0.397516191,-1.049990058,-1.129053473
1.08,2.255041122,7.159256935,7.491504669,-0.3885102868,-1.052067041,-1.137047052
1.082,2.245847464,7.182260036,7.534418583,-0.3769736588,-1.054807186,-1.147885561
1.084,2.25447607,7.183524609,7.574258327,-0.3646865487,-1.05812335,-1.159875989
1.086,2.259571075,7.173335075,7.617076397,-0.3533768058,-1.060741305,-1.171063542
1.088,2.285763502,7.162129879,7.673952579,-0.3430968225,-1.062434316,-1.180348754
1.09,2.329835892,7.155004978,7.744045258,-0.3332182467,-1.064703226,-1.189808369
1.092,2.374799013,7.134031773,7.83919096,-0.3206867874,-1.069101453,-1.202811122
1.094,2.430813789,7.112905502,7.951603413,-0.3076840937,-1.074372292,-1.217262387
1.096,2.499613523,7.079079628,8.088254929,-0.2970375717,-1.079346538,-1.23071897
1.098,2.5756917,7.044660568,8.245429993,-0.2882760167,-1.085158467,-1.243459821
1.1,2.652976513,7.013679504,8.405687332,-0.2790257931,-1.090376973,-1.256218195
1.102,2.732416153,6.977920055,8.567986488,-0.2698977292,-1.094705462,-1.26930809
1.104,2.817611456,6.939947605,8.734679222,-0.2633527219,-1.098667264,-1.281577826
1.106,2.906599045,6.910087585,8.904553413,-0.2587799728,-1.101861238,-1.29161346
1.108,3.007682323,6.892906666,9.063643456,-0.2550275028,-1.105386853,-1.30138731
1.11,3.121914625,6.885541916,9.222426414,-0.2509783506,-1.109645486,-1.312941432
1.112,3.253902197,6.889410973,9.357095718,-0.246807009,-1.114218235,-1.326485157
1.114,3.41943717,6.91232872,9.479027748,-0.2438399494,-1.118930578,-1.340517521
1.116,3.584895849,6.941729546,9.60293293,-0.2423215061,-1.122421265,-1.351286292
1.118,3.742051125,6.991835117,9.725621223,-0.2401223928,-1.125737309,-1.360396862
1.12,3.901696444,7.037037373,9.85045433,-0.2367015481,-1.128041148,-1.371374965
1.122,4.069797993,7.060136795,9.964963913,-0.2321636975,-1.129280329,-1.384988546
1.124,4.190485001,7.085170746,10.0955534,-0.2268404365,-1.130432248,-1.399684191
1.126,4.282298088,7.104487419,10.18514442,-0.2215171903,-1.131200194,-1.414502144
1.128,4.31410265,7.117176056,10.28946495,-0.2168222517,-1.132160187,-1.42780149
1.13,4.456116676,7.163499355,10.38567352,-0.2123891115,-1.13254416,-1.43951261
1.132,4.602172852,7.249968052,10.38767433,-0.2080606967,-1.131112933,-1.454400301
1.134,4.683959007,7.337864399,10.43803024,-0.204709664,-1.127377987,-1.471487045
1.136,4.751570702,7.422772408,10.51304531,-0.2024058253,-1.12207222,-1.487928033
1.138,4.803218842,7.504472256,10.54235935,-0.2017775178,-1.116452217,-1.500930786
1.14,4.855536461,7.572122574,10.55395699,-0.2024756521,-1.110046864,-1.511577249
1.142,4.881240845,7.653065681,10.57270908,-0.2046573013,-1.100185752,-1.525068641
1.144,4.86559248,7.719020844,10.57366562,-0.2083748579,-1.088282585,-1.539083719
1.146,4.853468418,7.766426086,10.55264568,-0.2121098638,-1.078072429,-1.549206614
1.148,4.820437908,7.797072411,10.5334053,-0.2164557278,-1.067914605,-1.557112932
1.15,4.772736073,7.822182655,10.5032959,-0.2217091769,-1.055889249,-1.565385818
1.152,4.719316483,7.843921661,10.47427845,-0.2269975245,-1.042467713,-1.573169947
1.154,4.667524815,7.852694511,10.46096706,-0.2342057377,-1.02785933,-1.581076264
1.156,4.60021925,7.840962887,10.45326614,-0.2424960434,-1.01433301,-1.588406682
1.158,4.517332077,7.816311836,10.4540329,-0.2493551821,-1.004087925,-1.593590379
1.16,4.419820786,7.776453018,10.45395565,-0.2556209266,-0.9961292148,-1.598547101
1.162,4.301355839,7.726721287,10.45164871,-0.2622706294,-0.9887988567,-1.60402739
1.164,4.17428112,7.664557934,10.43575954,-0.2706482112,-0.9823411107,-1.610362887
1.166,4.066302299,7.583758354,10.4358654,-0.278798908,-0.9774891138,-1.61610508
1.168,3.948670626,7.499942303,10.44609356,-0.2852740586,-0.974260211,-1.620957136
1.17,3.831613302,7.412438869,10.45275879,-0.2916968763,-0.9723229408,-1.626734138
1.172,3.736171007,7.326803207,10.46076584,-0.2984164059,-0.9731082916,-1.632546067
1.174,3.663128614,7.233391285,10.47551346,-0.3055722415,-0.9765815139,-1.637450457
1.176,3.603637457,7.143521786,10.51137924,-0.3125884533,-0.981154263,-1.641325116
1.178,3.566019773,7.054141521,10.56569862,-0.317964077,-0.9855350852,-1.644798279
1.18,3.54775691,6.947820187,10.64839363,-0.3220481575,-0.9907885194,-1.647800207
1.182,3.524504423,6.841881275,10.74684334,-0.3252944648,-0.9989392161,-1.649964452
1.184,3.513098478,6.738126278,10.85982132,-0.327563405,-1.011086702,-1.651797056
1.186,3.531696558,6.635118008,10.99886703,-0.3291167319,-1.023286581,-1.653472543
1.188,3.567236185,6.527656555,11.16305161,-0.3313158453,-1.035835505,-1.654798985
1.19,3.670722961,6.375366688,11.34608364,-0.3334800601,-1.049466491,-1.655968428
1.192,3.762918949,6.231724262,11.55930138,-0.333096087,-1.059432268,-1.656753778
1.194,3.857968807,6.090015888,11.74612617,-0.3307398856,-1.067582965,-1.657713771
1.196,3.96409893,5.954628468,11.92704105,-0.3269350827,-1.076274753,-1.659040213
1.198,4.089095592,5.835426331,12.0994339,-0.3225368559,-1.08327353,-1.660226941
1.2,4.246720314,5.746553421,12.23418808,-0.317597568,-1.088980675,-1.661640763
1.202,4.401844978,5.68350935,12.33850861,-0.310860604,-1.097602606,-1.66286242
1.204,4.561701298,5.622208118,12.42611694,-0.3008424044,-1.10933125,-1.663665295
1.206,4.723443985,5.597614765,12.50026035,-0.2910860181,-1.120099902,-1.664625168
1.208,4.891919136,5.596005917,12.55178452,-0.2842792273,-1.128268123,-1.665340781
1.21,5.041604519,5.600880146,12.58128166,-0.2793050408,-1.134743214,-1.665934205
1.212,5.187067032,5.607794762,12.58990955,-0.2756921947,-1.140223622,-1.667766809
1.214,5.314706326,5.619382858,12.5711298,-0.2732836604,-1.144342542,-1.671344757
1.216,5.428747177,5.633087635,12.54311752,-0.2729345858,-1.146349669,-1.675952435
1.218,5.514172554,5.631698608,12.50676346,-0.2753082216,-1.147152543,-1.680053949
1.22,5.602115631,5.634102345,12.46125507,-0.2807013094,-1.146541715,-1.683614373
1.222,5.666941643,5.636535168,12.42116642,-0.2870019376,-1.143138289,-1.686947942
1.224,5.725512981,5.644761086,12.37694073,-0.297142297,-1.135755539,-1.689566016
1.226,5.778779507,5.670369625,12.34104729,-0.3091501594,-1.127377987,-1.691276431
1.228,5.827218533,5.701695919,12.3248806,-0.3190985322,-1.118598938,-1.692916989
1.23,5.852625847,5.719594955,12.31875229,-0.3300766647,-1.105561376,-1.694836855
1.232,5.849868298,5.734294891,12.33723545,-0.3427652121,-1.088893414,-1.696564794
1.234,5.838260651,5.75342989,12.37087917,-0.3589793146,-1.067268848,-1.699793577
1.236,5.823330402,5.752155781,12.40802765,-0.3740938604,-1.046796083,-1.703004956
1.238,5.789361954,5.734313965,12.44312572,-0.3875154555,-1.030564547,-1.705902219
1.24,5.749569893,5.707173347,12.49394989,-0.4030663371,-1.012901783,-1.709584951
1.242,5.702231884,5.672677517,12.53592491,-0.4185648561,-0.9949947596,-1.712988257
1.244,5.648151875,5.645163536,12.57891464,-0.4346393347,-0.9731781483,-1.717526197
1.246,5.572849274,5.600306034,12.61362171,-0.4490906596,-0.9523040056,-1.722221136
1.248,5.506299973,5.565551758,12.63576412,-0.4606447518,-0.9356011748,-1.726340055
1.25,5.445333958,5.53199482,12.64933395,-0.4710294604,-0.9190205932,-1.729918003
1.252,5.387949944,5.502680302,12.66769218,-0.47968629,-0.9034347534,-1.732309103
1.254,5.312321663,5.471392632,12.70132637,-0.4872959256,-0.8879362345,-1.735188842
1.256,5.28359127,5.437146187,12.72905064,-0.4938758314,-0.8737292886,-1.737929106
1.258,5.265663624,5.401060581,12.74152088,-0.4987627268,-0.8613199592,-1.740302682
1.26,5.234184742,5.368834496,12.76673508,-0.5007523894,-0.8499578834,-1.741908431
1.262,5.184634209,5.331800938,12.81760788,-0.499984473,-0.8402887583,-1.741925836
1.264,5.115747929,5.287211418,12.86888218,-0.4971395731,-0.8319286108,-1.741943359
1.266,5.041863441,5.217214584,12.92115211,-0.4909436703,-0.8237953782,-1.741943359
1.268,4.963974953,5.137075901,12.99028683,-0.481780678,-0.8173202276,-1.741315007
1.27,4.894696236,5.05575943,13.05951786,-0.4704883993,-0.8121540546,-1.740738988
1.272,4.843565941,4.973474979,13.11075401,-0.4570493698,-0.807528913,-1.740198016
1.274,4.802787781,4.894762993,13.16023731,-0.4417952001,-0.8047015071,-1.7380687
1.276,4.782868385,4.827342987,13.18893814,-0.4251621962,-0.8032354116,-1.735311031
1.278,4.757192612,4.784927368,13.19981861,-0.4067140818,-0.80327034,-1.73419404
1.28,4.748046875,4.761435032,13.18650723,-0.3872187436,-0.8048585653,-1.733426094
1.282,4.754740715,4.738938808,13.14216614,-0.3672870994,-0.8061501384,-1.732483625
1.284,4.7714715,4.7313447,13.08093166,-0.3474950492,-0.8066737056,-1.733042121
1.286,4.810880184,4.757211685,13.00813866,-0.3280695379,-0.808139801,-1.735171437
1.288,4.85477066,4.781575203,12.9281435,-0.3088011146,-0.8112639189,-1.737929106
1.29,4.897349358,4.806972504,12.85875988,-0.2902308106,-0.8153828979,-1.740616798
1.292,4.932678223,4.821251869,12.7869997,-0.2719397545,-0.8205316663,-1.744247198
1.294,4.967116356,4.818848133,12.71816254,-0.2559700012,-0.8273558617,-1.748243928
1.296,5.003249645,4.808418751,12.6289835,-0.2431592643,-0.8355065584,-1.751141191
1.298,5.051238537,4.799062729,12.53457546,-0.2319367975,-0.8438667059,-1.753252983
1.3,5.073945522,4.803879261,12.45800781,-0.2232799679,-0.8526456952,-1.754439831
1.302,5.088138103,4.804022789,12.39751148,-0.2184803188,-0.8599935174,-1.754928589
1.304,5.114387989,4.800766945,12.34805679,-0.2174854726,-0.8645662665,-1.754492283
1.306,5.122030735,4.787934303,12.32169247,-0.2199114859,-0.8667479753,-1.753671885
1.308,5.137411118,4.761186123,12.32253551,-0.2256361693,-0.867323935,-1.753340364
1.31,5.15592289,4.735941887,12.33308887,-0.2339613885,-0.8656483889,-1.754160643
1.312,5.158814907,4.69123745,12.34551907,-0.2458819896,-0.8599237204,-1.755434752
1.314,5.168392181,4.653073788,12.35260582,-0.2608219981,-0.8512843251,-1.756900787
1.316,5.183465958,4.615091801,12.37449837,-0.2763728797,-0.8398698568,-1.760024905
1.318,5.178562641,4.585614681,12.38168049,-0.2921855748,-0.8248077035,-1.763515592
1.32,5.177796364,4.561528683,12.3774004,-0.3093421459,-0.8070053458,-1.767128468
1.322,5.195772171,4.553503513,12.36999702,-0.3277030289,-0.7861835361,-1.771770954
1.324,5.209380627,4.534618378,12.37508297,-0.3452610373,-0.762237668,-1.77744329
1.326,5.214887142,4.519763947,12.38824081,-0.3618940115,-0.7367209196,-1.784162879
1.328,5.226676464,4.501645088,12.41682816,-0.3781255782,-0.7092843652,-1.791964412
1.33,5.250972748,4.480298519,12.46309376,-0.3929434121,-0.678863287,-1.800499082
1.332,5.28707695,4.455150127,12.51523972,-0.4052829146,-0.64910537,-1.808387995
1.334,5.341980934,4.424877644,12.569664,-0.4156676233,-0.6167993546,-1.816329241
1.336,5.413328171,4.393867493,12.6392107,-0.4236786664,-0.5818753242,-1.824305415
1.338,5.517724991,4.378870487,12.71380424,-0.428216517,-0.5544038415,-1.829750776
1.34,5.634590626,4.363116741,12.79081154,-0.4310090542,-0.5293234587,-1.832298994
1.342,5.781614304,4.342114925,12.86756992,-0.4334001541,-0.5004906058,-1.83364296
1.344,5.930399418,4.331244946,12.92912006,-0.4343775511,-0.4701393247,-1.83545804
1.346,6.090456486,4.329684258,12.96802998,-0.4335048795,-0.4394738972,-1.837133527
1.348,6.257025719,4.336799145,12.98762512,-0.4312708676,-0.4102571011,-1.837831736
1.35,6.413357735,4.343599319,12.99101448,-0.4271867871,-0.3819653094,-1.838110924
1.352,6.537061691,4.345983982,12.97328854,-0.4207988679,-0.3543367386,-1.83727324
1.354,6.66626215,4.359650135,12.93058491,-0.4131543338,-0.3285756707,-1.835353374
1.356,6.769595623,4.368000984,12.88025856,-0.4062428474,-0.3042109013,-1.833311319
1.358,6.856256485,4.384549141,12.83900166,-0.4006054103,-0.2813470662,-1.830588579
1.36,6.945071697,4.403999805,12.79131889,-0.3948283792,-0.2606823742,-1.827586651
1.362,7.014532089,4.425499916,12.74449825,-0.3889989853,-0.2412045002,-1.824462533
1.364,7.064522743,4.436522961,12.69152927,-0.3837979138,-0.2231927067,-1.821303487
1.366,7.09935379,4.454919815,12.64113617,-0.3794694841,-0.2073276639,-1.818755269
1.368,7.119426727,4.46602869,12.59641171,-0.3758043051,-0.192352742,-1.816765547
1.37,7.10423851,4.46811676,12.56818962,-0.3736924529,-0.1783726513,-1.814688683
1.372,7.085525036,4.47410202,12.52569771,-0.3734481037,-0.1647765338,-1.811965942
1.374,7.054601669,4.463740349,12.50074005,-0.3749316335,-0.1500983089,-1.807689905
1.376,7.009590149,4.443906784,12.47828197,-0.3790156841,-0.1346521527,-1.801214695
1.378,6.959944248,4.422952652,12.45530796,-0.385089457,-0.1185776666,-1.793535233
1.38,6.913879871,4.400542259,12.42134857,-0.3938859105,-0.1016305238,-1.785349607
1.382,6.846516609,4.374886036,12.39364243,-0.4062951803,-0.08461356163,-1.776343703
1.384,6.766119003,4.354727268,12.36936569,-0.4227187335,-0.06822492182,-1.766674638
1.386,6.674660683,4.343790531,12.34462929,-0.4435928762,-0.05239478499,-1.75674367
1.388,6.564240456,4.300714016,12.31961441,-0.4678878784,-0.03586651757,-1.747022271
1.39,6.452095509,4.251623631,12.30095768,-0.4960749447,-0.01745329238,-1.737702131
1.392,6.334904194,4.187860966,12.30174351,-0.5286951065,0.002024581889,-1.728853345
1.394,6.232614517,4.116906166,12.31195259,-0.5643871427,0.02289872058,-1.720196486
1.396,6.136779308,4.049150467,12.34769344,-0.6022782326,0.04464552179,-1.710684419
1.398,6.04417181,3.971607208,12.38329029,-0.6476742029,0.06991788745,-1.700491786
1.4,5.972115517,3.900259972,12.4268837,-0.6901555657,0.09409070015,-1.692236304
1.402,5.915957451,3.797644615,12.47072697,-0.7248003483,0.1137256548,-1.685726285
1.404,5.861379623,3.692414522,12.50572968,-0.7606843114,0.1333780587,-1.678971887
1.406,5.815429688,3.596665621,12.55181313,-0.7954861522,0.1521228999,-1.671798468
1.408,5.803985119,3.48273015,12.61817074,-0.8292233944,0.1698554456,-1.664153934
1.41,5.817900181,3.387938976,12.71107483,-0.8603251576,0.1865407825,-1.656614184
1.412,5.840616703,3.300522089,12.83829403,-0.8878141046,0.2009048462,-1.649458289
1.414,5.874997616,3.224980116,12.98637962,-0.9122661352,0.2121098638,-1.643052936
1.416,5.942753315,3.139746666,13.13256931,-0.9332624674,0.2217266262,-1.636665106
1.418,6.052704811,3.041383028,13.28066635,-0.9509600997,0.2306976169,-1.630277157
1.42,6.120805264,2.966636181,13.39085674,-0.9657430053,0.2384468764,-1.62451756
1.422,6.199124336,2.925628185,13.44413185,-0.97837919,0.2444508076,-1.619333982
1.424,6.307409763,2.909970284,13.49971581,-0.9895318747,0.2484650761,-1.614708781
1.426,6.423269749,2.900354862,13.52413654,-0.9997420311,0.2510481477,-1.61029315
1.428,6.568549633,2.895672083,13.50670719,-1.007386565,0.2524095178,-1.605650544
1.43,6.721146584,2.921787977,13.4954443,-1.012378216,0.2529680133,-1.599349856
1.432,6.894314289,2.942617416,13.47043991,-1.015676856,0.2531949282,-1.593311071
1.434,7.057905197,2.973780632,13.43544674,-1.016706705,0.2535963356,-1.58959353
1.436,7.214744568,2.996439219,13.41883945,-1.016183019,0.2553416789,-1.58650434
1.438,7.377598763,3.005038977,13.40607452,-1.014385343,0.2566855848,-1.583031058
1.44,7.529860497,3.0229671,13.40499115,-1.010179162,0.2559700012,-1.579732418
1.442,7.675494671,3.028722763,13.40616989,-1.004367113,0.2541024983,-1.576486111
1.444,7.817671776,3.037006617,13.40498257,-0.9994802475,0.2523920536,-1.572000623
1.446,7.947562218,3.051486492,13.40812302,-0.9940173626,0.2516939342,-1.566398144
1.448,8.064639091,3.070333719,13.4037466,-0.9879959822,0.2514146864,-1.560952663
1.45,8.169427872,3.061187983,13.41370678,-0.9830217957,0.2522524297,-1.555280328
1.452,8.249787331,3.064961195,13.44115353,-0.9784839153,0.2541722953,-1.549171686
1.454,8.312878609,3.073475122,13.47634888,-0.9747315049,0.2559001744,-1.542905927
1.456,8.339071274,3.060009956,13.51451206,-0.9716247916,0.2565982938,-1.535610437
1.458,8.333995819,3.025935888,13.56528854,-0.9681515694,0.2575058639,-1.526971102
1.46,8.322561264,2.982322931,13.62225056,-0.9654812217,0.2600889504,-1.51744163
1.462,8.292222023,2.916740894,13.68725872,-0.9640849829,0.262096107,-1.507580519
1.464,8.215530396,2.809394598,13.75618267,-0.9635090232,0.2644872069,-1.497248173
1.466,8.132423401,2.68430233,13.82497311,-0.964224577,0.2692519426,-1.48515296
1.468,8.044384003,2.53297925,13.89641571,-0.9657779336,0.2730742097,-1.47138238
1.47,7.952359676,2.36849761,13.96617413,-0.967977047,0.2749591768,-1.457890987
1.472,7.839813709,2.210317373,14.0298214,-0.9710837603,0.2753955126,-1.444190145
1.474,7.726701736,2.038500071,14.10000038,-0.9755168557,0.2746450007,-1.429773688
1.476,7.62123251,1.867917895,14.15871525,-0.9817302227,0.2737025321,-1.416020513
1.478,7.517678261,1.697977424,14.21747875,-0.9889908433,0.2733185589,-1.40252912
1.48,7.42333746,1.53016305,14.27005482,-0.9963735342,0.2741039693,-1.388828278
1.482,7.314506531,1.365710139,14.33646107,-1.00410533,0.275046438,-1.376000166
1.484,7.221975803,1.20729053,14.41542149,-1.012308359,0.2767044902,-1.36352098
1.486,7.131723404,1.039361238,14.47451115,-1.020703435,0.2808409333,-1.35053575
1.488,7.050655842,0.8671606779,14.52058411,-1.027911663,0.2866354287,-1.338632584
1.49,6.973792553,0.7111161947,14.58348465,-1.033985376,0.2934072912,-1.328422427
1.492,6.891019821,0.5735741258,14.63750744,-1.040565252,0.3009122014,-1.318578839
1.494,6.817575455,0.4789839685,14.67080593,-1.047040462,0.3093247116,-1.309834719
1.496,6.768858433,0.4369035065,14.69696999,-1.053463221,0.3190636337,-1.302172661
1.498,6.722908497,0.4181425571,14.73074722,-1.059868693,0.329657793,-1.295592785
1.5,6.68070364,0.430113554,14.78062344,-1.065628171,0.3412293196,-1.28943181
1.502,6.625943661,0.4751532674,14.82479191,-1.072068453,0.355715543,-1.283148646
1.504,6.570321083,0.5295208097,14.8809309,-1.079119563,0.3745650947,-1.277738094
1.506,6.523442745,0.6072652936,14.94629288,-1.086397648,0.3958057761,-1.272694111
1.508,6.483995914,0.7072471976,15.01038074,-1.093780398,0.4151789248,-1.267178893
1.51,6.4518466,0.8253004551,15.07022572,-1.099941373,0.4334874153,-1.262082458
1.512,6.439195633,0.9566081166,15.12276459,-1.106242061,0.456089437,-1.25780642
1.514,6.444156647,1.088135958,15.17218113,-1.113851666,0.4798084497,-1.253216267
1.516,6.481793404,1.222805023,15.19578743,-1.121374011,0.5024104714,-1.249149561
1.518,6.558772087,1.372969389,15.20638847,-1.12821579,0.5254837275,-1.244960785
1.52,6.661272526,1.533993721,15.20777702,-1.135738134,0.5471956134,-1.239148855
1.522,6.798306942,1.7119596,15.18310738,-1.143853903,0.568977356,-1.233005285
1.524,6.975928307,1.879505754,15.15191555,-1.150625706,0.5910906792,-1.227036238
1.526,7.179837227,2.056667328,15.1214819,-1.155599952,0.6127327681,-1.220177174
1.528,7.404135704,2.225353003,15.10124493,-1.15950954,0.633833766,-1.21265471
1.53,7.63256216,2.382230759,15.09909916,-1.162057638,0.654742837,-1.204853177
1.532,7.870277405,2.518978119,15.08586502,-1.163401604,0.6736796498,-1.19694674
1.534,8.097803116,2.624753714,15.08999252,-1.163960099,0.6895796061,-1.188045621
1.536,8.321613312,2.698543072,15.10738373,-1.162912846,0.7049036026,-1.178114653
1.538,8.534831047,2.723720551,15.14165878,-1.160277486,0.7199657559,-1.169021487
1.54,8.725534439,2.702412128,15.18639278,-1.155425429,0.733684063,-1.159317493
1.542,8.885590553,2.636763096,15.25224304,-1.149334192,0.7452555895,-1.148740768
1.544,9.027011871,2.539347887,15.34050274,-1.142125964,0.7562860847,-1.138757467
1.546,9.106805801,2.425699711,15.44340515,-1.133207321,0.7667754889,-1.128372788
1.548,9.209220886,2.22070837,15.53016186,-1.1238873,0.7764096856,-1.117830992
1.55,9.247154236,2.017612934,15.65294647,-1.114724278,0.7847349644,-1.107550979
1.552,9.224456787,1.810016513,15.70618343,-1.105316997,0.7909832001,-1.096729994
1.554,9.214305878,1.564457655,15.74807262,-1.09580493,0.7963588238,-1.085699558
1.556,9.174744606,1.316629052,15.8072567,-1.086886287,0.8004428744,-1.07395339
1.558,9.106259346,1.092512608,15.84719276,-1.077880383,0.8030434251,-1.061282396
1.56,9.019934654,0.8986300826,15.8821764,-1.069799542,0.8047364354,-1.049501419
1.562,8.920210838,0.7280862927,15.91174984,-1.063045144,0.805434525,-1.03775537
1.564,8.814100266,0.5602240562,15.92878723,-1.055557728,0.8066562414,-1.025398374
1.566,8.694821358,0.4204026759,15.93423653,-1.048087716,0.8077907562,-1.013425469
1.568,8.57658577,0.309838444,15.94453144,-1.041891694,0.8069878817,-1.001609564
1.57,8.465092659,0.2271427065,15.94731712,-1.035573602,0.8053996563,-0.9901601672
1.572,8.35832119,0.1617905796,15.9209528,-1.027963996,0.8044397235,-0.9795137048
1.574,8.254106522,0.1246421412,15.87432289,-1.019499183,0.8040382862,-0.9698096514
1.576,8.175623894,0.1062738299,15.81718826,-1.011313558,0.8041953444,-0.9614495039
1.578,8.099928856,0.1149025261,15.74716187,-1.003564358,0.8048934937,-0.954572916
1.58,8.028055191,0.1662246436,15.66471577,-0.9953612685,0.805801034,-0.9473472834
1.582,7.961439133,0.2240398228,15.57358265,-0.9872803688,0.8077558279,-0.9396678209
1.584,7.913554668,0.2875244617,15.47401237,-0.9798976779,0.8107578158,-0.9337162375
1.586,7.872288704,0.3617351353,15.35865021,-0.9724625349,0.8135677576,-0.9284453392
1.588,7.83323431,0.4474475682,15.2319212,-0.9643990993,0.8156447411,-0.9231395721
1.59,7.804954052,0.5363298655,15.1016283,-0.9560564756,0.8184023499,-0.918462038
1.592,7.778588772,0.6530807614,14.9846859,-0.947923243,0.8229750991,-0.9137147665
1.594,7.753401756,0.7669873238,14.86468887,-0.9398946762,0.8283157945,-0.9092467427
1.596,7.756945133,0.8950196505,14.73918438,-0.9325119853,0.8327140212,-0.9058607817
1.598,7.774758339,1.021797419,14.60249519,-0.9244660139,0.8370075226,-0.902579546
1.6,7.806237221,1.136039138,14.44104862,-0.9148666859,0.8431860209,-0.8990365267
1.602,7.840790749,1.25369978,14.24869919,-0.905284822,0.849172473,-0.8944463134
1.604,7.892600536,1.36250186,14.04931927,-0.8963313103,0.8531867266,-0.889105618
1.606,7.937602043,1.452830315,13.84082222,-0.8873254061,0.8560839891,-0.8840790987
1.608,7.960778236,1.480842471,13.73311234,-0.8770279288,0.8582133055,-0.8788779974
1.61,8.006746292,1.528602004,13.44141197,-0.8662068844,0.8597142696,-0.8729788065
1.612,8.009486198,1.529262781,13.34737778,-0.8561189175,0.8603076935,-0.8661545515
1.614,8.008901596,1.536627412,13.17670918,-0.8460134268,0.8602553606,-0.858335495
1.616,7.969809055,1.484749913,12.9633379,-0.8359079957,0.8589637876,-0.8507258296
1.618,7.925430298,1.417702675,12.84165573,-0.825802505,0.8565377593,-0.8435350657
1.62,7.868141651,1.338885546,12.76271343,-0.8150513172,0.8536579609,-0.8355414867
1.622,7.800050735,1.234948397,12.71220493,-0.803409934,0.8502720594,-0.8269370198
1.624,7.706044197,1.11803484,12.6697607,-0.7911053896,0.847322464,-0.8180532455
1.626,7.652424335,1.054253221,12.65895844,-0.7782074213,0.8442332149,-0.8097106218
1.628,7.523797989,0.9049028754,12.65862274,-0.765065074,0.8407599926,-0.8012632132
1.63,7.346531391,0.6830753088,12.67789173,-0.7521321774,0.8374438882,-0.7918384075
1.632,7.234396458,0.534299612,12.70080853,-0.7399323583,0.8339008689,-0.781680584
1.634,7.178525448,0.4533947706,12.71438885,-0.7289716601,0.8305498362,-0.7699694633
1.636,7.053682327,0.2858676612,12.74650002,-0.7184997201,0.8276176453,-0.7566875219
1.638,6.943520069,0.09468588978,12.77988434,-0.7088829279,0.8248425722,-0.7433880568
1.64,6.784459114,-0.1658415645,12.84439468,-0.7008544207,0.8224514723,-0.7285004258
1.642,6.730148792,-0.2506250441,12.86665058,-0.694431603,0.8217882514,-0.7113962173
1.644,6.631009579,-0.4328716695,12.91941929,-0.6893003583,0.8234114051,-0.6943268776
1.646,6.534609795,-0.6164782047,12.98083496,-0.686263442,0.8256629109,-0.6779207587
1.648,6.424821377,-0.8530349135,13.06407642,-0.6865950823,0.827827096,-0.6627014875
1.65,6.391312122,-0.9994068146,13.11908627,-0.6876946092,0.8303054571,-0.6492624879
1.652,6.351012707,-1.111235261,13.16953659,-0.6881309748,0.8344593644,-0.6377956867
1.654,6.335660934,-1.257511377,13.23171902,-0.6889337897,0.8408821821,-0.6283883452
1.656,6.331332684,-1.325975895,13.26886749,-0.6911678314,0.8495041132,-0.6207786798
1.658,6.312417984,-1.441769123,13.30903244,-0.6945886612,0.861843586,-0.6135705113
1.66,6.31269598,-1.593532681,13.35098839,-0.6988298297,0.876975596,-0.6071651578
1.662,6.317857742,-1.678076744,13.37971878,-0.704030931,0.8929104209,-0.6023480296
1.664,6.325595856,-1.733488321,13.35856342,-0.7099301219,0.9091768861,-0.5988050103
1.666,6.330374718,-1.748533368,13.34826851,-0.7161260247,0.9259146452,-0.5967280865
1.668,6.344959736,-1.765158653,13.34778023,-0.7224266529,0.9437693357,-0.5946336985
1.67,6.381983757,-1.782195807,13.31434727,-0.7284654975,0.9630203247,-0.5925043821
1.672,6.387337208,-1.789732814,13.2651701,-0.7343996167,0.983178854,-0.5913349986
1.674,6.389884949,-1.778824806,13.22620201,-0.7396531105,1.003058195,-0.590532124
1.676,6.38898468,-1.772111416,13.20199203,-0.7436847687,1.022518635,-0.5895896554
1.678,6.365645885,-1.737807393,13.15482616,-0.7481703162,1.04084456,-0.5882457495
1.68,6.343964577,-1.681371212,13.07643032,-0.7518878579,1.058105826,-0.5861164927
1.682,6.329398155,-1.656835437,13.04454994,-0.7552912235,1.074895978,-0.5833588243
1.684,6.298742771,-1.60302341,12.99077511,-0.7592007518,1.090272307,-0.5800427198
1.686,6.272013664,-1.535937905,12.94355297,-0.7626914382,1.103152752,-0.5761506557
1.688,6.241549969,-1.444929481,12.89273834,-0.7666358948,1.114078522,-0.5726774335
1.69,6.234434128,-1.347159743,12.83830357,-0.7704581618,1.123573184,-0.569047153
1.692,6.24796629,-1.253747702,12.77404308,-0.7732681036,1.130903482,-0.5647361875
1.694,6.281168938,-1.161819935,12.70804882,-0.7763050199,1.135790467,-0.5604601502
1.696,6.318240643,-1.101457238,12.63680744,-0.7797607183,1.13778019,-0.5555557609
1.698,6.362351418,-1.07502532,12.5749321,-0.7830594182,1.137012243,-0.5494645238
1.7,6.41005373,-1.067172408,12.53345394,-0.7866024375,1.134167314,-0.5422388911
1.702,6.46908474,-1.080311656,12.50515556,-0.7902676463,1.128913879,-0.5339486003
1.704,6.528595448,-1.11401248,12.4932127,-0.7942644358,1.118878245,-0.5255186558
1.706,6.600124359,-1.157232523,12.49423695,-0.7990640998,1.106591105,-0.5157622695
1.708,6.674785137,-1.193844676,12.50350761,-0.8016471863,1.096852183,-0.503283143
1.71,6.760593891,-1.24219799,12.52919197,-0.8026943803,1.085629702,-0.4896695614
1.712,6.85154438,-1.310011387,12.55041504,-0.8056439757,1.069066525,-0.4762479961
1.714,6.948385239,-1.377355456,12.58181763,-0.8100072742,1.047808409,-0.4628787637
1.716,7.040839672,-1.460434318,12.62307453,-0.813986659,1.02525878,-0.4482878149
1.718,7.135717392,-1.573325634,12.68393421,-0.8168664575,1.003145456,-0.4322482347
1.72,7.219073772,-1.69043088,12.77503872,-0.8196240664,0.9796183705,-0.4149869382
1.722,7.272042751,-1.7843889,12.86973476,-0.8213694096,0.954572916,-0.3975510895
1.724,7.409499168,-1.991094708,12.97550106,-0.8223991394,0.9289165735,-0.3803421557
1.726,7.469564438,-2.08798337,13.03686905,-0.8237779737,0.9026842713,-0.3619812727
1.728,7.487932682,-2.124145269,13.04733562,-0.8249647617,0.8759109378,-0.3425208628
1.73,7.530961514,-2.216800928,13.04754734,-0.8263959289,0.8501847982,-0.3219608963
1.732,7.57801199,-2.390524149,13.04525757,-0.8279143572,0.8251916766,-0.300667882
1.734,7.595911026,-2.501423597,12.9970293,-0.829485178,0.8004952669,-0.2790432274
1.736,7.596792698,-2.555427313,12.98353481,-0.8310734034,0.7787659168,-0.2569822669
1.738,7.58301115,-2.664564371,12.95467091,-0.8332899809,0.7604573965,-0.2350783944
1.74,7.550680161,-2.768252611,12.89800453,-0.8364141583,0.7447843552,-0.2138377428
1.742,7.468530178,-2.904875278,12.81253242,-0.8395732045,0.7324274182,-0.1935221106
1.744,7.397221088,-2.977793217,12.75092506,-0.8433780074,0.7226535678,-0.1738871485
1.746,7.348714828,-3.014175653,12.71901512,-0.8480904102,0.7152010202,-0.1551597714
1.748,7.249307632,-3.076137543,12.6499939,-0.853169322,0.7109075189,-0.1380729973
1.75,7.135343552,-3.105605125,12.58371353,-0.8583878279,0.7104188204,-0.1219636053
1.752,6.978600025,-3.149582148,12.48259163,-0.8636761904,0.7124259472,-0.1065698043
1.754,6.921981812,-3.165604115,12.4561882,-0.8689819574,0.7164052725,-0.09208357334
1.756,6.813160419,-3.174012423,12.40754795,-0.8736594319,0.7233865857,-0.07925540209
1.758,6.709367275,-3.188176632,12.36305428,-0.8774642944,0.7338062525,-0.06897541136
1.76,6.608417988,-3.217222929,12.32427692,-0.8812167645,0.747838676,-0.05974261835
1.762,6.457688332,-3.254572392,12.24257851,-0.8843234181,0.7655363083,-0.05061454698
1.764,6.407851219,-3.261716843,12.22370243,-0.8865399957,0.7863231897,-0.04153883457
1.766,6.30244875,-3.266543388,12.18129635,-0.8883900642,0.809920013,-0.03310889751
1.768,6.197716713,-3.253949881,12.12974453,-0.890083015,0.8356287479,-0.0265290048
1.77,6.093961239,-3.227805138,12.06084824,-0.8914094567,0.8625068069,-0.02005383372
1.772,5.962002754,-3.227814913,11.95544624,-0.8925788403,0.8892278075,-0.01300270297
1.774,5.926300526,-3.226732731,11.92145824,-0.8939925432,0.9155822396,-0.00664970465
1.776,5.870409966,-3.229385614,11.85896015,-0.8949001431,0.9424079657,-0.0006108652451
1.778,5.81292057,-3.244497538,11.80319405,-0.8962091208,0.9687799215,0.005951572675
1.78,5.724162579,-3.275028467,11.77435875,-0.898635149,0.9934064746,0.01335176919
1.782,5.64517355,-3.299679279,11.7824316,-0.9012007713,1.016060829,0.02172934823
1.784,5.587003708,-3.326379299,11.77436829,-0.9038187265,1.036952496,0.03082251363
1.786,5.5281353,-3.339844227,11.77666569,-0.9070999622,1.05461514,0.04052654654
1.788,5.509881973,-3.344987154,11.77517319,-0.9103288054,1.070008993,0.05204571784
1.79,5.485681057,-3.342027903,11.76285648,-0.9122661352,1.082906961,0.06494370103
1.792,5.457372189,-3.34091711,11.74482346,-0.9136973023,1.091005325,0.07840018719
1.794,5.440804005,-3.335400581,11.72502804,-0.914273262,1.094618201,0.09239772707
1.796,5.411432266,-3.326044083,11.72052765,-0.9129293561,1.093553543,0.1072504818
1.798,5.385890484,-3.317444086,11.7224617,-0.9111142159,1.087759018,0.1237263903
1.8,5.367953777,-3.330832481,11.73006535,-0.9094387293,1.076868176,0.1411447823
1.802,5.330201626,-3.348195314,11.72168541,-0.9065414667,1.060130477,0.1589820385
1.804,5.321678162,-3.355272532,11.73074532,-0.902213037,1.039744973,0.1776047051
1.806,5.311028957,-3.380162716,11.74580956,-0.8972912431,1.014088631,0.1962273717
1.808,5.303233624,-3.404870749,11.75412178,-0.8924391866,0.9831265211,0.2148500234
1.81,5.29234457,-3.44069767,11.75588512,-0.8857371211,0.9531592131,0.2353751063
1.812,5.311670303,-3.487030268,11.75633526,-0.8757538795,0.9229824543,0.2576280534
1.814,5.266132832,-3.55284214,11.76254082,-0.8663116097,0.8907985687,0.2793050408
1.816,5.209294319,-3.6309793,11.81145859,-0.8577420712,0.8594000936,0.3010692894
1.818,5.182115555,-3.700755835,11.82839108,-0.8466766477,0.8302007914,0.3244392574
1.82,5.129213333,-3.778270483,11.81663132,-0.8330107331,0.802537322,0.3484898806
1.822,5.07267189,-3.854042292,11.81120014,-0.8195717335,0.7742280364,0.3727848828
1.824,5.01750946,-3.912891626,11.78989124,-0.8071449399,0.7466169596,0.3968878686
1.826,4.946689129,-3.962374926,11.75000477,-0.7935662866,0.7217983603,0.4199436605
1.828,4.871032238,-4.015334606,11.71112347,-0.7785739303,0.7012732625,0.4406956434
1.83,4.796246529,-4.052742004,11.69635582,-0.7623772621,0.6859841943,0.4586201608
1.832,4.722074032,-4.071703911,11.67016315,-0.7444178462,0.6756518483,0.4744328558
1.834,4.653896809,-4.087017536,11.63346481,-0.7247828841,0.6692464948,0.4871912003
1.836,4.595181465,-4.116083145,11.59531021,-0.7045021653,0.666942656,0.4967905283
1.838,4.547948837,-4.145301819,11.55837345,-0.6845530272,0.6691766977,0.5044873953
1.84,4.510503292,-4.172614574,11.52507401,-0.6657034755,0.6770132184,0.5107880831
1.842,4.47089386,-4.206305981,11.49526215,-0.6479360461,0.690312624,0.5161811113
1.844,4.436666489,-4.255961895,11.46775723,-0.6306049228,0.7077135444,0.5205968022
1.846,4.383869648,-4.312081337,11.43985939,-0.6143907905,0.7293207049,0.5242794752
1.848,4.333715916,-4.363307953,11.41187572,-0.5999045968,0.7529525161,0.5270370841
1.85,4.269589424,-4.409458637,11.37429714,-0.5861164927,0.7774045467,0.5291140079
1.852,4.187353611,-4.430777073,11.32185459,-0.5738642812,0.8028339744,0.530911684
1.854,4.118726254,-4.410694122,11.26633835,-0.5638285875,0.8292757273,0.5313131213
1.856,4.064894676,-4.3633461,11.20923138,-0.555328846,0.8564504981,0.5311735272
1.858,4.031375885,-4.263527393,11.15352249,-0.5490282178,0.8848819137,0.5314178467
1.86,4.030485153,-4.114904881,11.11706352,-0.5448917747,0.9141162038,0.5324825048
1.862,4.055634022,-3.94300127,11.11690998,-0.5428846478,0.9427570701,0.5348038077
1.864,4.118400574,-3.780042171,11.14242268,-0.5417501926,0.9708219171,0.5370029211
1.866,4.22484684,-3.625874758,11.18303776,-0.5409822464,0.9980316162,0.5401095748
1.868,4.344977856,-3.492479563,11.2303772,-0.5412964225,1.023303986,0.5451710224
1.87,4.470922947,-3.392842293,11.28127766,-0.5423610806,1.045591831,0.5503721237
1.872,4.607191086,-3.326225996,11.32646084,-0.5431290269,1.065401316,0.5556604862
1.874,4.741093636,-3.293607473,11.34170723,-0.5437398553,1.083552718,0.5619087219
1.876,4.85406208,-3.253739357,11.33046341,-0.5449441671,1.097899318,0.5682442784
1.878,4.956524372,-3.210241556,11.31508255,-0.5457469821,1.106887817,0.5736548305
1.88,5.04738903,-3.18987155,11.28904438,-0.5460786223,1.113066316,0.5802870393
1.882,5.129778385,-3.176665068,11.25652122,-0.5458866358,1.116225362,0.5886646509
1.884,5.176158905,-3.186309099,11.23886108,-0.5451884866,1.114968657,0.5968153477
1.886,5.20341444,-3.233503342,11.24008751,-0.5452234149,1.110989332,0.6048613191
1.888,5.205741882,-3.295752764,11.25264263,-0.545537591,1.105596304,0.6116157174
1.89,5.194910049,-3.368354559,11.26183605,-0.5450488925,1.097393274,0.6172007918
1.892,5.167109013,-3.452525139,11.26904774,-0.5435827971,1.081737638,0.625159502
1.894,5.118468285,-3.540152788,11.27233315,-0.5417152643,1.060863495,0.6340780854
1.896,5.081424713,-3.610657215,11.26822376,-0.5400223136,1.039099216,0.6408674717
1.898,5.028293133,-3.643774033,11.24276829,-0.5380675793,1.016357541,0.6470982432
1.9,4.970228672,-3.657641172,11.1990509,-0.53600806,0.9966702461,0.652788043
1.902,4.900902271,-3.667514801,11.11811733,-0.5323254466,0.9735097289,0.6598391533
1.904,4.804693222,-3.67214036,11.01495647,-0.5282937288,0.94514817,0.669333756
1.906,4.705028057,-3.67795372,10.8929472,-0.5241398215,0.9181304574,0.6785665751
1.908,4.596397877,-3.682349443,10.77177238,-0.5189736485,0.8948302865,0.6867521405
1.91,4.472177029,-3.688449621,10.63739967,-0.5130744576,0.8733453155,0.6945014
1.912,4.313220978,-3.720216036,10.50264454,-0.5024802685,0.8440935612,0.7011162043
1.914,4.134623528,-3.764623642,10.35831261,-0.4883780181,0.8129220009,0.705078125
1.916,3.950825453,-3.811866045,10.21188259,-0.4722162783,0.7901454568,0.7070153952
1.918,3.772208452,-3.857949495,10.06018639,-0.4552342296,0.7748738527,0.7071550488
1.92,3.661490917,-3.883423805,9.895810127,-0.4353723824,0.761382401,0.7053399086
1.922,3.501654148,-3.907768011,9.683167458,-0.4042357206,0.7442258596,0.7001737356
1.924,3.203145027,-3.961369514,9.59770298,-0.3666413128,0.7265107632,0.6927037239
1.926,3.031241179,-3.972804308,9.518781662,-0.329867214,0.7113962173,0.6846054196
1.928,2.883145571,-3.961034536,9.344444275,-0.2981720567,0.6989520192,0.677205205
1.93,2.747720003,-3.944102526,9.221966743,-0.2688505054,0.6884974837,0.6704158783
1.932,2.583918095,-3.920419216,9.14851284,-0.2335599661,0.6773099303,0.6606943607
1.934,2.425240278,-3.909721613,9.05004406,-0.1993166059,0.6673964262,0.6498035192
1.936,2.299946785,-3.929315805,8.975364685,-0.1717927605,0.6605198383,0.6403263807
1.938,2.184795141,-3.95453167,8.915163994,-0.1514422148,0.6561390758,0.632350266
1.94,2.075830221,-3.985120058,8.88137722,-0.1362229437,0.6546729803,0.6246882677
1.942,1.979803681,-4.013266087,8.862051964,-0.1218065247,0.6565928459,0.6165201068
1.944,1.903534055,-4.040550709,8.859915733,-0.1093274206,0.6599090099,0.6087883115
1.946,1.862008929,-4.062663555,8.866820335,-0.1004436985,0.6618812084,0.6024702191
1.948,1.856962085,-4.044036388,8.885255814,-0.09367182106,0.6636440158,0.5967455506
1.95,1.873596907,-4.001161098,8.908920288,-0.08649851382,0.6643421054,0.5906368494
1.952,1.931699395,-3.955431938,8.953825951,-0.0797964558,0.6646388173,0.5849819779
1.954,2.023301601,-3.90621686,9.018842697,-0.07391469181,0.6672742963,0.5788908005
1.956,2.131471634,-3.840836048,9.0989151,-0.06899286807,0.6692988873,0.574213326
1.958,2.26513505,-3.776029587,9.187959671,-0.06572909653,0.6685483456,0.5723109245
1.96,2.416439056,-3.709509134,9.307660103,-0.06344271451,0.6660351157,0.5715255141
1.962,2.595745564,-3.665800571,9.456158638,-0.06126105785,0.6621604562,0.571211338
1.964,2.75566864,-3.649012566,9.606973648,-0.05878268927,0.6574306488,0.5720316768
1.966,2.929363251,-3.630098104,9.767624855,-0.05651376024,0.6536257863,0.5733057261
1.968,3.136538267,-3.654653072,9.941817284,-0.05560619012,0.6498559117,0.5741435289
1.97,3.350455284,-3.67602849,10.08538246,-0.05490805954,0.6445326209,0.5757492185
1.972,3.583698511,-3.686850309,10.21474743,-0.05304055661,0.637952745,0.5786115527
1.974,3.829267025,-3.692807198,10.32448769,-0.05040510744,0.6289643049,0.5822942257
1.976,4.055020809,-3.70394516,10.40112114,-0.04773475602,0.617724359,0.5860117674
1.978,4.251163483,-3.72221756,10.46162701,-0.04539601505,0.6077759862,0.5887868404
1.98,4.443676949,-3.733441353,10.49805737,-0.04223696887,0.5983687043,0.5911779404
1.982,4.612324238,-3.716423512,10.5353775,-0.03810053691,0.5879141688,0.5940402746
1.984,4.760506153,-3.695412159,10.54691792,-0.03326597437,0.5776516199,0.5967978835
1.986,4.888519764,-3.67007184,10.5516777,-0.02813470736,0.5674763322,0.600428164
1.988,4.973427296,-3.640556097,10.53491783,-0.02384119667,0.5589242578,0.6044424176
1.99,5.023054123,-3.621182203,10.50487614,-0.01956514083,0.5510178804,0.6073396802
1.992,5.059388638,-3.613779306,10.41061115,-0.01436406001,0.5418025851,0.6107255816
1.994,5.056381702,-3.613530159,10.36459446,-0.006876597181,0.5292187333,0.6155776381
1.996,5.014502525,-3.628834009,10.26752472,0.0008901178953,0.5171585083,0.6200805902
1.998,4.943241119,-3.662170887,10.15014172,0.008482299745,0.5068784952,0.6234839559
2.0,4.835377216,-3.696235657,10.01508045,0.01787217148,0.4960574806,0.6270793676
2.002,4.681114197,-3.748075008,9.867386818,0.02769837528,0.4859869182,0.6304304004
2.004,4.499183655,-3.802164793,9.708621979,0.03991568089,0.4733507335,0.6340082884
2.006,4.296175003,-3.886785507,9.538374901,0.0518188253,0.4609588981,0.6376734972
2.008,4.0786376,-3.954292297,9.365571022,0.06171484292,0.4505392909,0.6407452822
2.01,3.834524632,-4.006179333,9.201855659,0.07237880677,0.4387234151,0.6438868642
2.012,3.568711042,-4.063065529,9.040888786,0.0833394751,0.4257032573,0.6467491984
2.014,3.299037695,-4.122460842,8.889852524,0.09506808221,0.4122118652,0.6498035192
2.016,3.032314062,-4.183378696,8.735704422,0.1074250117,0.3988251984,0.6532592773
2.018,2.760437965,-4.24352169,8.590088844,0.1193805188,0.3854734302,0.655615449
2.02,2.483850002,-4.292975903,8.459711075,0.1311963946,0.3712140918,0.6572037339
2.022,2.262108803,-4.319072723,8.337721825,0.1429599226,0.354668349,0.6591061354
2.024,2.109847069,-4.320480347,8.202113152,0.1559451669,0.3353126645,0.661462307
2.026,1.810935855,-4.360358238,8.16187191,0.1675516069,0.3192207217,0.6640105247
2.028,1.639166236,-4.36861372,8.208797455,0.1763829738,0.3060434759,0.6659827232
2.03,1.581389427,-4.348282337,8.156720161,0.1859648377,0.2902657092,0.6680596471
2.032,1.505550623,-4.353185654,8.124761581,0.1939758956,0.2734232843,0.6711140275
2.034,1.383235693,-4.41048336,8.249835014,0.200067088,0.2580469251,0.6755122542
2.036,1.310748816,-4.484186649,8.390776634,0.205390349,0.2435781509,0.681393981
2.038,1.327671051,-4.592030525,8.47605896,0.208828643,0.2285508662,0.6888465285
2.04,1.421111941,-4.702460766,8.594130516,0.2102249116,0.2145358771,0.6972416043
2.042,1.591703653,-4.801504612,8.737485886,0.2104692608,0.2018822283,0.7057064176
2.044,1.826373696,-4.862230778,8.861898422,0.2093173414,0.1894729435,0.7157944441
2.046,2.102856159,-4.889496326,8.976590157,0.2069436908,0.1796816438,0.7252541184
2.048,2.406440973,-4.870715618,9.098818779,0.2050412744,0.1735031754,0.7332128286
2.05,2.718568087,-4.816990376,9.211930275,0.2023709267,0.1687558889,0.7424455881
2.052,3.0187819,-4.720513344,9.325358391,0.197815612,0.1652652323,0.7528303266
2.054,3.292850733,-4.613760948,9.440538406,0.1921607554,0.1625774205,0.7659028172
2.056,3.547048092,-4.501165867,9.536306381,0.1873436421,0.1608495414,0.7784866691
2.058,3.767065763,-4.385651112,9.616224289,0.1834864616,0.1607797295,0.7896044254
2.06,3.955221176,-4.2824893,9.684689522,0.1793849468,0.1626472324,0.8036019206
2.062,4.115814686,-4.174098969,9.745818138,0.1758244634,0.165614292,0.8184372187
2.064,4.26068306,-4.042169094,9.788492203,0.1724908948,0.1696634591,0.8317540884
2.066,4.412446976,-3.903075457,9.816677094,0.1695412844,0.174148947,0.8422086239
2.068,4.547748089,-3.781066895,9.829403877,0.167411983,0.1794547588,0.8521569967
2.07,4.666451931,-3.685978651,9.825659752,0.166207701,0.1866455078,0.8637809157
2.072,4.755985737,-3.592317581,9.775409698,0.1660506278,0.1943249553,0.8751429915
2.074,4.81681776,-3.499164104,9.706745148,0.1659808159,0.2021789402,0.8863829374
2.076,4.848593712,-3.421563148,9.629603386,0.1665742248,0.2116909772,0.8969596028
2.078,4.853535175,-3.357657194,9.540616035,0.1677785069,0.2228261828,0.9060004354
2.08,4.821941376,-3.304735899,9.436238289,0.1695238352,0.2342929989,0.9140987396
2.082,4.772391319,-3.255520582,9.326756477,0.1724385321,0.2471735328,0.9208706021
2.084,4.68917799,-3.208843231,9.218414307,0.176470235,0.2612583339,0.9264731407
2.086,4.586916924,-3.165153742,9.102372169,0.1803274155,0.2758143842,0.9325293899
2.088,4.460799694,-3.14155674,8.979482651,0.184411481,0.2909114659,0.9387951493
2.09,4.325240135,-3.127679586,8.853690147,0.1898743659,0.3058864176,0.9441882372
2.092,4.157770634,-3.127689362,8.720256805,0.1943075061,0.3204948008,0.9492147565
2.094,3.979862213,-3.118849754,8.583547592,0.1992642432,0.3337069452,0.9541016817
2.096,3.778012037,-3.10553813,8.440805435,0.2057045102,0.3457148075,0.9592503905
2.098,3.560398102,-3.083051682,8.287250519,0.2114815414,0.3569198251,0.9651321769
2.1,3.341874599,-3.056064367,8.14118576,0.2163510174,0.3674790859,0.9719564319
2.102,3.130380392,-3.038567543,8.008327484,0.2205398083,0.3774448931,0.9788330197
2.104,2.904070854,-3.013955116,7.876827717,0.2238210291,0.385613054,0.9847846031
2.106,2.687280655,-2.997320414,7.747952461,0.2254790813,0.391145736,0.9903696179
2.108,2.484721661,-2.971146822,7.636602879,0.2267880887,0.3943571448,0.9961117506
2.11,2.291509628,-2.945088387,7.526154041,0.2269975245,0.3965911567,1.002552032
2.112,2.100500345,-2.918474436,7.439608574,0.2245715111,0.3978303373,1.009899855
2.114,1.932005882,-2.921452999,7.376918316,0.2213601023,0.397062391,1.017945886
2.116,1.760035157,-2.95902276,7.328057766,0.21879448,0.3951774538,1.026271105
2.118,1.588639021,-3.046851635,7.303646564,0.2149198502,0.3928387165,1.03503263
2.12,1.424779892,-3.175362825,7.316402912,0.2095442265,0.3884055614,1.043637037
2.122,1.284077406,-3.342430115,7.348293304,0.2045176774,0.3828205168,1.052189231
2.124,1.182821751,-3.529752493,7.398609638,0.2002590746,0.3767467737,1.060409665
2.126,1.109750867,-3.725483179,7.456549644,0.1963146329,0.368596077,1.068490505
2.128,1.12347436,-3.895816088,7.515973568,0.1925098151,0.3583509922,1.076519132
2.13,1.235350609,-4.006007195,7.533499718,0.1887399107,0.3469016552,1.084198475
2.132,1.229566336,-4.151516914,7.620427608,0.1846907437,0.3343527317,1.091755748
2.134,1.305232525,-4.244038582,7.750059605,0.179245308,0.3185225725,1.099243283
2.136,1.391260982,-4.305492878,7.840426445,0.1742013097,0.302919358,1.105439186
2.138,1.479798555,-4.350570679,7.969875813,0.1708677262,0.2899340987,1.110186458
2.14,1.573766232,-4.369963646,8.139442444,0.1682671905,0.2774026394,1.114951253
2.142,1.653876185,-4.337574959,8.285422325,0.1662426144,0.2643999159,1.119105101
2.144,1.728402972,-4.27023077,8.388525963,0.1635373533,0.2509085238,1.1233114
2.146,1.777675629,-4.167117596,8.451771736,0.1605353802,0.2387784868,1.127238393
2.148,1.826622725,-4.039640903,8.432273865,0.1580570191,0.2278527319,1.130414844
2.15,1.876805186,-3.889284849,8.357956886,0.1557880938,0.2173982114,1.132648826
2.152,1.935836554,-3.699223518,8.240296364,0.1539031267,0.207781449,1.133259773
2.154,1.999388337,-3.494902372,8.089537621,0.1521927118,0.198496297,1.132858276
2.156,2.033644438,-3.301537037,7.917490959,0.1499237865,0.1899965405,1.131444573
2.158,2.009367228,-3.131874561,7.75061512,0.1461538672,0.1836784482,1.129594564
2.16,1.991832137,-2.963016033,7.609213352,0.1421047002,0.1782853752,1.127273202
2.162,1.989878535,-2.778959513,7.486563683,0.1391900033,0.1722814441,1.124742508
2.164,2.003401041,-2.620089769,7.394827366,0.136100769,0.1666963995,1.122141957
2.166,2.005814314,-2.514400244,7.316441059,0.1326450258,0.1615825742,1.11856401
2.168,1.972506285,-2.429473162,7.267618656,0.1299746633,0.1560149789,1.114881396
2.17,1.874640703,-2.371610165,7.236397743,0.1279326379,0.1502902955,1.110867143
2.172,1.760772586,-2.371284485,7.210885048,0.1261698455,0.1463807672,1.106399059
2.174,1.622588754,-2.381378412,7.200666904,0.1244943365,0.1447925121,1.102053285
2.176,1.505952835,-2.405377865,7.168632507,0.1231853366,0.1441292912,1.097113967
2.178,1.424099803,-2.430076361,7.128486156,0.1232726052,0.1438674927,1.091633677
2.18,1.341978788,-2.448952436,7.077882767,0.1236391217,0.1440769285,1.087200522
2.182,1.264636517,-2.461919308,7.006200314,0.1234645918,0.1447925121,1.083186269
2.184,1.203479052,-2.474838495,6.934221268,0.1246514171,0.1476199478,1.077758312
2.186,1.151754618,-2.483112812,6.884661198,0.1263967454,0.1512851417,1.07271421
2.188,1.098325729,-2.471898556,6.836652279,0.1274264902,0.1543569118,1.069398165
2.19,1.061905026,-2.453874826,6.789630413,0.1278453618,0.1581268311,1.067094326
2.192,1.038652539,-2.422721386,6.742742062,0.1280198991,0.1621934474,1.066169262
2.194,1.039945483,-2.374387264,6.689581394,0.1293463558,0.1657364666,1.066727757
2.196,1.064107776,-2.32703948,6.642118454,0.131161496,0.1681275666,1.067286253
2.198,1.090692997,-2.294459343,6.607038975,0.1328370124,0.169733271,1.067809939
2.2,1.104722977,-2.303145409,6.577791691,0.1357342601,0.1707106531,1.06929338
2.202,1.099359989,-2.343272209,6.566940784,0.1394343525,0.1714262366,1.071475029
2.204,1.072669387,-2.423238516,6.57352972,0.1434660703,0.1710771769,1.074267626
2.206,1.041171312,-2.508136988,6.578844547,0.1473232359,0.1696809083,1.076658726
2.208,1.005172014,-2.598369598,6.582560539,0.1520356238,0.1678483188,1.078264356
2.21,0.9654666185,-2.647958279,6.560266018,0.1568003744,0.1664694995,1.079538465
2.212,0.9342366457,-2.681486845,6.541696072,0.1600117832,0.1655793786,1.081964493
2.214,0.9129378796,-2.704432964,6.516059399,0.1628915817,0.1639736891,1.085472584
2.216,0.8797541857,-2.718759775,6.4838624,0.1656492054,0.1614080518,1.087532163
2.218,0.8483422995,-2.720617771,6.455620289,0.1692794859,0.1575334221,1.088998199
2.22,0.7945398092,-2.737242937,6.428412437,0.1729795784,0.1524894089,1.090551496
2.222,0.7437061071,-2.747011185,6.39842701,0.1757372022,0.1469567269,1.091493964
2.224,0.6877009273,-2.755544186,6.364151955,0.1784424633,0.1409178823,1.092192173
2.226,0.6339080334,-2.774247885,6.333333969,0.1805019528,0.1352979243,1.092157245
2.228,0.5912911892,-2.778039932,6.300571918,0.182910502,0.1308124214,1.092157245
2.23,0.5547748208,-2.772294044,6.249039173,0.1861044616,0.1270774156,1.092768073
2.232,0.5188235044,-2.73068285,6.207581043,0.1883384734,0.1239881888,1.092401624
2.234,0.4967393875,-2.685547352,6.156814098,0.1905201375,0.1211607531,1.091616154
2.236,0.4779688418,-2.630451918,6.104831219,0.1936093718,0.1190489084,1.091302037
2.238,0.4683728814,-2.578440428,6.063737392,0.1964542568,0.1178795397,1.090219855
2.24,0.4343177676,-2.508797884,6.058029175,0.1982344985,0.1180366203,1.088195324
2.242,0.3788297474,-2.416879654,6.030122757,0.1999100149,0.1203055456,1.085804224
2.244,0.3570616841,-2.357168198,6.018295288,0.2021789402,0.1231329814,1.083884358
2.246,0.3174328208,-2.309858561,6.045837879,0.2053030729,0.1258556992,1.081510663
2.248,0.2646837831,-2.256985188,6.041107655,0.2081654221,0.1307426095,1.0780375
2.25,0.2188013047,-2.227402449,6.038377762,0.2105739713,0.1365371048,1.074721336
2.252,0.1986612827,-2.193261147,6.045713902,0.2134537697,0.1423490494,1.072731733
2.254,0.2008639574,-2.16057539,6.040523052,0.2165255398,0.1494525373,1.071928859
2.256,0.201677978,-2.109014034,6.035245895,0.2196671367,0.1583537161,1.071597219
2.258,0.226290375,-2.054157972,6.036577225,0.2228436321,0.1692271233,1.072417498
2.26,0.2792022526,-1.999110579,6.03083086,0.2266659141,0.1809208244,1.074651599
2.262,0.3279290199,-1.923472881,6.030811787,0.2310466915,0.1929287016,1.077444077
2.264,0.3737827837,-1.863933921,6.03784132,0.2356892675,0.2060361207,1.080166817
2.266,0.4272021949,-1.825722456,6.053566456,0.2413615882,0.2214648277,1.083482981
2.268,0.4644368291,-1.791236281,6.063401699,0.248081103,0.2378534675,1.086711764
2.27,0.499938041,-1.762678385,6.092994213,0.2546086311,0.2536661625,1.089940667
2.272,0.5264179111,-1.750180483,6.131617546,0.2607347369,0.2702118754,1.095036983
2.274,0.5392029285,-1.737079501,6.177212715,0.267332077,0.287996769,1.100883842
2.276,0.5763514042,-1.735327005,6.233160496,0.2747497261,0.3062703907,1.107690692
2.278,0.611871779,-1.734532118,6.301883698,0.2825164497,0.3241425455,1.115841389
2.28,0.6373268962,-1.722819686,6.363816738,0.2910336554,0.3415085673,1.124201417
2.282,0.6672065258,-1.713779211,6.435259819,0.2998650074,0.3577226698,1.132963061
2.284,0.6947302818,-1.72514689,6.504049778,0.3082076907,0.3731688559,1.142527461
2.286,0.7250217199,-1.730213046,6.587329865,0.3160093129,0.3876550794,1.153051734
2.288,0.7449510694,-1.732329488,6.668799877,0.323287338,0.3998723924,1.164605856
2.29,0.78034693,-1.737635016,6.740616322,0.3303559124,0.4098905623,1.176247239
2.292,0.8153501749,-1.744424939,6.80268383,0.3367089033,0.4171336889,1.187609315
2.294,0.8602557778,-1.728968024,6.846076012,0.3437076807,0.4213399291,1.200751662
2.296,0.9043665528,-1.722925067,6.879317284,0.3497116268,0.4227361977,1.213056207
2.298,0.9373203516,-1.711269975,6.907473087,0.3537433445,0.4220380783,1.222795129
2.3,0.9525092244,-1.707420111,6.924826145,0.357583046,0.4192280769,1.232132673
2.302,0.9531891346,-1.715091228,6.926156998,0.3607420921,0.4136779308,1.24098146
2.304,0.9189137816,-1.729504228,6.929719925,0.363586992,0.4057192504,1.248678327
2.306,0.8699858189,-1.732530475,6.923207283,0.3656988442,0.3965038955,1.254979014
2.308,0.8051508665,-1.737587094,6.905002594,0.3675139844,0.3861017227,1.260057926
2.31,0.7375482321,-1.731199384,6.880993366,0.3682470322,0.3733608425,1.263391495
2.312,0.6598132253,-1.72903502,6.844333172,0.3666413128,0.3596425354,1.265066981
2.314,0.5859090686,-1.710120797,6.78830862,0.364110589,0.3468143642,1.264159441
2.316,0.5011543036,-1.692422867,6.720074177,0.3605501056,0.3333753347,1.26065135
2.318,0.39067626,-1.664477825,6.648908615,0.3562566042,0.3193778098,1.256061077
2.32,0.2940558493,-1.625145793,6.571968555,0.3519805372,0.3054849803,1.249760509
2.322,0.1970140636,-1.591780186,6.491408825,0.3464653194,0.2906671464,1.242150784
2.324,0.1070208102,-1.562494397,6.412198544,0.3397981524,0.2754827738,1.233057618
2.326,0.0204560589,-1.542047858,6.307323456,0.3336022198,0.2601587772,1.221782804
2.328,-0.05792052671,-1.530938745,6.204602718,0.3285582364,0.2447475195,1.209617853
2.33,-0.1341710687,-1.546261549,6.104064941,0.3246137798,0.2296504229,1.197086453
2.332,-0.1926278919,-1.570088744,6.017911911,0.3214198351,0.2143438905,1.184729457
2.334,-0.2394776344,-1.59339869,5.929278851,0.3194999695,0.1992816925,1.171499848
2.336,-0.2935578525,-1.624379635,5.840377331,0.3190287352,0.1839926094,1.157589674
2.338,-0.3346806765,-1.644797325,5.768436432,0.3197792172,0.1683021039,1.144656777
2.34,-0.348069042,-1.673939705,5.713101387,0.3223099411,0.1527686715,1.132456899
2.342,-0.3607391715,-1.691359878,5.668138504,0.3271096051,0.1369734406,1.120867848
2.344,-0.3616585433,-1.718040824,5.631584167,0.3331833482,0.1207593307,1.110151529
2.346,-0.3655467331,-1.744578123,5.586956024,0.3394316435,0.1043706909,1.100412607
2.348,-0.3489309549,-1.761050344,5.541006565,0.3473554254,0.08728391677,1.091406703
2.35,-0.3150386214,-1.778815269,5.493438244,0.3568849266,0.06864380091,1.084268332
2.352,-0.2788383067,-1.795124531,5.46776247,0.3658035696,0.05002113804,1.078526258
2.354,-0.2233981788,-1.800554514,5.445458412,0.3741811514,0.0320093371,1.073028445
2.356,-0.1583046168,-1.790968299,5.423546791,0.3826459944,0.01396263391,1.068577886
2.358,-0.1079114601,-1.779705882,5.409516811,0.3914424479,-0.003473205259,1.064877748
2.36,-0.05258624628,-1.760073543,5.415961742,0.3997676671,-0.0197396744,1.062731028
2.362,0.02693955787,-1.741915822,5.412092686,0.4063126445,-0.03455751762,1.062172413
2.364,0.09690770507,-1.716508508,5.425404549,0.412124604,-0.04879940674,1.061945558
2.366,0.1607371271,-1.663079619,5.447191715,0.417971462,-0.06279694289,1.062172413
2.368,0.2228331417,-1.599748135,5.477234364,0.4231899679,-0.07513642311,1.063219666
2.37,0.2676909268,-1.529981136,5.52675581,0.4265759289,-0.08583529294,1.06426692
2.372,0.2966990769,-1.472108364,5.56688261,0.4285830557,-0.09492845833,1.065645695
2.374,0.2939983904,-1.403279901,5.60834074,0.4287750423,-0.1020843089,1.068420768
2.376,0.2831191421,-1.333359599,5.665332317,0.426959902,-0.1072155759,1.07144022
2.378,0.2774496675,-1.254609585,5.720025539,0.4246385992,-0.1105666086,1.074250102
2.38,0.2764632702,-1.199303508,5.77809,0.4211654067,-0.1125737354,1.077287078
2.382,0.2723739743,-1.129134297,5.841698647,0.4156501591,-0.1124341115,1.079468727
2.384,0.2839331627,-1.060631394,5.917192936,0.4080405235,-0.11047934,1.080672979
2.386,0.2967756689,-1.006282926,5.986241817,0.3992615044,-0.1077915356,1.08178997
2.388,0.3029910326,-0.9442635775,6.063928604,0.3893829584,-0.1032362282,1.082557917
2.39,0.300386101,-0.892960608,6.12953949,0.3784048259,-0.09632471949,1.0822438
2.392,0.2989974916,-0.8568273187,6.181761742,0.3676361442,-0.08876744658,1.080533385
2.394,0.3016023934,-0.8156661987,6.224273205,0.3566056788,-0.08065166324,1.077321887
2.396,0.3065440059,-0.7800309062,6.263988495,0.3448770642,-0.07229153812,1.072853923
2.398,0.2978865802,-0.7571327686,6.299201965,0.3325201273,-0.06352998316,1.068193913
2.4,0.2760801911,-0.7532445788,6.325854301,0.3199014068,-0.05396557972,1.063132405
2.402,0.2440744936,-0.7580138445,6.336657047,0.3078411818,-0.04501204193,1.056971431
2.404,0.215056777,-0.7724460959,6.323029518,0.2959729433,-0.035691984,1.050374031
2.406,0.1510549784,-0.7873763442,6.312417984,0.2832494974,-0.02464404888,1.042624831
2.408,0.09317275137,-0.8126399517,6.301615715,0.2705085874,-0.01319468953,1.033479214
2.41,0.02112643607,-0.8302612901,6.295045853,0.2590068579,-0.001902408898,1.022815347
2.412,-0.04371812567,-0.8545384407,6.307437897,0.2473829687,0.009302604944,1.010266423
2.414,-0.09082643688,-0.8758564591,6.318279266,0.2356892675,0.02080432512,0.9978920221
2.416,-0.116837047,-0.8734048009,6.32502079,0.2246238738,0.03211405873,0.9846449494
2.418,-0.1625567228,-0.8594226837,6.337126255,0.2138202786,0.04209734127,0.9691638947
2.42,-0.2186959535,-0.8160014153,6.313002586,0.2027897984,0.05183627829,0.9527577758
2.422,-0.2461430877,-0.7899811864,6.28948164,0.1907121241,0.06211626902,0.9359677434
2.424,-0.2772868574,-0.7640280724,6.251107216,0.1785471886,0.07103490084,0.9190379977
2.426,-0.2894685566,-0.7318403721,6.207963943,0.1672723591,0.07813838869,0.9007818699
2.428,-0.2940175533,-0.7198693752,6.184931755,0.155124858,0.08480554819,0.8813738227
2.43,-0.3095032275,-0.6444903612,6.106966972,0.1419650763,0.09162978828,0.8620879054
2.432,-0.3015449345,-0.5771366358,6.067721367,0.129660517,0.09819222242,0.8428893089
2.434,-0.2951667607,-0.5399116278,6.052110672,0.1177050024,0.1030791476,0.823708117
2.436,-0.2847280502,-0.4601559639,6.010633945,0.1049466506,0.1050688177,0.8042128086
2.438,-0.2918531895,-0.38493976,5.965220928,0.09155996889,0.1055575162,0.7842985988
2.44,-0.2619448304,-0.2830616832,5.913831711,0.0778940469,0.1048070192,0.7645065784
2.442,-0.2397457957,-0.2195195556,5.88103056,0.06318091601,0.102922067,0.744766891
2.444,-0.2163496464,-0.1735125929,5.852453709,0.04961971194,0.1008974835,0.725376308
2.446,-0.1861635447,-0.1269501448,5.832667828,0.03715806082,0.09786061198,0.7067536116
2.448,-0.1699691564,-0.09743443131,5.825829983,0.02291617356,0.09285151958,0.6887418032
2.45,-0.09736739099,-0.0126413852,5.83260107,0.008918632753,0.08574802428,0.6713234186
2.452,-0.07513962686,0.01862688735,5.840846539,-0.003385938704,0.07843509316,0.6535036564
2.454,-0.02968810126,0.10774865,5.87610817,-0.0147131253,0.07042403519,0.6358234286
2.456,0.01411621273,0.1701798588,5.904350758,-0.02658136375,0.06115633622,0.6191555262
2.458,0.05547844246,0.2229384929,5.95877552,-0.0386764966,0.05201081187,0.6029065251
2.46,0.086133793,0.2882618606,6.012951374,-0.04960225895,0.04293509945,0.5871462226
2.462,0.124517642,0.3409630358,6.066456795,-0.060353484,0.03385938704,0.5712462664
2.464,0.1396872997,0.4145895243,6.120690346,-0.07009242475,0.02450442314,0.5553113818
2.466,0.1413919777,0.4558368623,6.152772903,-0.07754497975,0.01436406001,0.5396732688
2.468,0.1586781144,0.5352860093,6.220011711,-0.08403760195,0.003926991019,0.5238431096
2.47,0.153391704,0.6289855242,6.314046383,-0.09047786891,-0.00630063843,0.5069832206
2.472,0.1442554444,0.6884383559,6.378622532,-0.09625490755,-0.01677261479,0.4890587032
2.474,0.1331367642,0.7429207563,6.440929413,-0.1008102149,-0.02862340026,0.4716752172
2.476,0.1218457073,0.764842093,6.476698875,-0.1045626774,-0.04038691893,0.4551295042
2.478,0.09400593489,0.8200715184,6.54576683,-0.1076693609,-0.0508588925,0.439229548
2.48,0.06107129529,0.8957187533,6.664911747,-0.1098684743,-0.06078981608,0.4236088693
2.482,0.0520882532,0.9139146805,6.701925755,-0.1104618907,-0.07084291428,0.4084244967
2.484,0.03228341788,0.9589160681,6.774978161,-0.1100604609,-0.08093091846,0.3943396807
2.486,0.00832224451,0.9964667559,6.832764149,-0.1095892265,-0.09040805697,0.3810402751
2.488,-0.04436934739,1.020600319,6.88452673,-0.10939724,-0.09899507463,0.3686833382
2.49,-0.09681194276,1.034888864,6.938607216,-0.1080533341,-0.1065872535,0.3573386967
2.492,-0.1587259918,1.043546438,6.975181103,-0.1056098714,-0.1134638563,0.3463954926
2.494,-0.2184373885,1.04501164,6.999975681,-0.1043008789,-0.1194328815,0.3362725973
2.496,-0.2801407576,1.036517024,7.006075859,-0.1034631208,-0.1240580007,0.3264638484
2.498,-0.3537193537,1.028520226,6.997552395,-0.1024857312,-0.1275312006,0.3164805472
2.5,-0.4237545431,1.034553766,6.971120834,-0.1017701477,-0.1298874021,0.3073699474
2.502,-0.4869902134,1.056091905,6.910882473,-0.101159282,-0.1305331737,0.2998650074
2.504,-0.5656828284,1.087695479,6.838117599,-0.1009149402,-0.1301666498,0.2933374941
2.506,-0.6271276474,1.140999913,6.755699635,-0.1014385372,-0.1303237379,0.2868972123
2.508,-0.672847271,1.194965243,6.658715248,-0.102922067,-0.1300793886,0.2817485034
2.51,-0.7107905746,1.25856483,6.552192688,-0.1057320461,-0.1287180334,0.2774375379
2.512,-0.7507258654,1.381933212,6.362322807,-0.1087689176,-0.1275312006,0.273475647
2.514,-0.774476409,1.472510576,6.223085403,-0.1115963534,-0.1264141947,0.2712416053
2.516,-0.7755010724,1.574350476,6.077843666,-0.1146332249,-0.1253320873,0.2693741024
2.518,-0.7768418789,1.628804207,6.00790453,-0.1180715263,-0.1242499873,0.2670353651
2.52,-0.7827507257,1.760906577,5.872871399,-0.1219985113,-0.1231853366,0.2651504278
2.522,-0.7477858067,2.004463911,5.692386627,-0.1261349469,-0.1227490082,0.2634225488
2.524,-0.7369927168,2.094093323,5.628538609,-0.1312836707,-0.1228886321,0.2624102533
2.526,-0.7202907801,2.279615164,5.505926132,-0.1371654272,-0.1223126724,0.2629513144
2.528,-0.7197736502,2.474742651,5.402152538,-0.1427155733,-0.1204975322,0.2641032338
2.53,-0.7214208245,2.67606616,5.304890156,-0.1484402567,-0.1197644919,0.2648886144
2.532,-0.7108289003,2.992838383,5.203606129,-0.1539380401,-0.1191536263,0.2652202249
2.534,-0.6972681284,3.210212708,5.136300087,-0.1590169519,-0.1182635128,0.2663023472
2.536,-0.6794840097,3.315796852,5.112377167,-0.1626472324,-0.1172861233,0.2676811516
2.538,-0.6676949263,3.498723745,5.063171387,-0.1647765338,-0.115610607,0.2688854337
2.54,-0.65618366,3.660868406,5.039746761,-0.1665742248,-0.1146157682,0.2706307471
2.542,-0.6258826256,3.833815813,5.037659168,-0.1685813516,-0.1139001846,0.2722888291
2.544,-0.6400563121,3.914768696,5.052340508,-0.1700125188,-0.1126610041,0.2735978067
2.546,-0.6568349004,3.947722673,5.06981802,-0.1690351367,-0.1115265414,0.2747497261
2.548,-0.6794552803,3.994897842,5.126857281,-0.1670454592,-0.1101128235,0.2755351365
2.55,-0.7105512023,4.016043663,5.19711256,-0.1640260369,-0.1079660654,0.2758667469
2.552,-0.749796927,4.01858139,5.279272079,-0.1602735817,-0.1058193147,0.2759889066
2.554,-0.8029673696,3.991871595,5.37284708,-0.1568527371,-0.104004167,0.275727123
2.556,-0.8617976904,3.950662613,5.47507,-0.1523148865,-0.1023112014,0.274679929
2.558,-0.9309135079,3.88919878,5.577436447,-0.1466774642,-0.09974556416,0.2729869485
2.56,-1.013207078,3.838594913,5.683451653,-0.1409004331,-0.09711012244,0.270403862
2.562,-1.142762065,3.749559402,5.842790604,-0.1350884885,-0.09445721656,0.2671400905
2.564,-1.227392316,3.69288373,5.935379505,-0.1289274693,-0.09054768085,0.2639286816
2.566,-1.26864922,3.663109303,5.980543613,-0.1229409948,-0.08705702424,0.2610314488
2.568,-1.351699233,3.620531082,6.068975449,-0.1176700965,-0.08531169593,0.2582738101
2.57,-1.405233622,3.581649065,6.159141064,-0.1136383861,-0.08335692436,0.2543119192
2.572,-1.458202839,3.52141118,6.286100864,-0.1097812131,-0.08127998561,0.2498613298
2.574,-1.487938881,3.507352352,6.367216587,-0.1059938446,-0.08044222742,0.2458470762
2.576,-1.502064705,3.503866196,6.416316986,-0.1032013148,-0.08011060953,0.2416757345
2.578,-1.521936536,3.503588676,6.507698536,-0.1004786044,-0.07932521403,0.2384119779
2.58,-1.517014027,3.5020082,6.589819908,-0.09747663885,-0.07838273793,0.235497281
2.582,-1.504707932,3.557659149,6.711885929,-0.09436995536,-0.07768460363,0.2308372408
2.584,-1.496385574,3.587835789,6.74048233,-0.09121090919,-0.07709119469,0.2257932425
2.586,-1.464964151,3.651818275,6.827784061,-0.08833111078,-0.07716100663,0.2221455127
2.588,-1.451575756,3.685308695,6.861896992,-0.08496262878,-0.07782422751,0.219091177
2.59,-1.423946619,3.756742001,6.919233322,-0.08042477071,-0.07777187228,0.215949595
2.592,-1.359006405,3.882274628,6.998969555,-0.07574728876,-0.07775441557,0.2127905488
2.594,-1.340647578,3.92650032,7.030515671,-0.07099999487,-0.07901105285,0.209282428
2.596,-1.298078775,4.027257919,7.096653461,-0.06623524427,-0.08045967668,0.2059663087
2.598,-1.234393001,4.141978741,7.172185421,-0.06176720187,-0.08199556917,0.2033483088
2.6,-1.181011796,4.266228199,7.258750439,-0.05773549154,-0.0832696557,0.2003986984
2.602,-1.125562191,4.387393475,7.360235691,-0.05324999616,-0.08377580345,0.1969778538
2.604,-1.042895198,4.546493053,7.486611366,-0.04890412465,-0.08524188399,0.193696633
2.606,-1.011416197,4.584033966,7.533757687,-0.04618141055,-0.08648106456,0.1901536286
2.608,-0.9538882375,4.672035694,7.621788025,-0.04476769641,-0.08571311831,0.1871342063
2.61,-0.8746976256,4.753620625,7.705182552,-0.04386012256,-0.08477064222,0.1852667034
2.612,-0.7840052843,4.819844246,7.763544083,-0.04192280769,-0.08407250792,0.1832421124
2.614,-0.7001603246,4.853372574,7.814051628,-0.04019493237,-0.08316493779,0.1805368513
2.616,-0.6168134212,4.853794098,7.849725723,-0.03885103017,-0.08215264976,0.1781632155
2.618,-0.5357553363,4.85088253,7.872747898,-0.03640756756,-0.0814370662,0.1762607992
2.62,-0.4746744335,4.848402023,7.890015125,-0.03447025269,-0.08114035428,0.1742187589
2.622,-0.4043806791,4.818340302,7.891011238,-0.0324107632,-0.08038986474,0.1724385321
2.624,-0.3418441117,4.787378788,7.882018566,-0.0284314137,-0.07944738865,0.1710771769
2.626,-0.2811367512,4.755018711,7.871464729,-0.02396337129,-0.07874925435,0.1692620367
2.628,-0.224825114,4.723510742,7.862864971,-0.02120575123,-0.07784168422,0.1663124263
2.63,-0.1665502489,4.68743515,7.84939003,-0.01912880875,-0.07682939619,0.1629090309
2.632,-0.1213860214,4.654797554,7.848748684,-0.01607448235,-0.07611380517,0.1602561325
2.634,-0.08344271779,4.634159088,7.834383488,-0.01261873078,-0.07517132908,0.1572890729
2.636,-0.05755661055,4.565761566,7.770401001,-0.009320057929,-0.07386233658,0.1529257447
2.638,-0.05111141875,4.545564651,7.746994972,-0.006405358203,-0.07300712168,0.1492431015
2.64,-0.05447287858,4.508377552,7.700164318,-0.003944444004,-0.0723439008,0.1458571702
2.642,-0.09405381978,4.459746361,7.658361912,-0.001692969352,-0.07143632323,0.1406909972
2.644,-0.1380400956,4.418978214,7.616875172,0.0007853981806,-0.07106980681,0.135123387
2.646,-0.1782148033,4.395534039,7.562679768,0.004014257342,-0.07059856504,0.1293812543
2.648,-0.2299582809,4.374120235,7.525943279,0.008168140426,-0.07073819637,0.1223126724
2.65,-0.2953583002,4.354162216,7.487444401,0.01176351868,-0.07173303515,0.1140572652
2.652,-0.3868934214,4.341635704,7.460428238,0.01417207345,-0.07182029635,0.1050164625
2.654,-0.4878808558,4.344949245,7.433335304,0.01672025397,-0.07248352468,0.09503317624
2.656,-0.5534244776,4.363930702,7.393026829,0.01870992966,-0.0733910948,0.08496262878
2.658,-0.6465972662,4.376868725,7.364085674,0.01951278187,-0.07375761122,0.07518878579
2.66,-0.7807204723,4.368709564,7.393151283,0.01984439418,-0.0748571679,0.06489133835
2.662,-0.8674575686,4.368910789,7.399912834,0.01904154196,-0.07531096041,0.05534439161
2.664,-0.9475867152,4.37636137,7.377406597,0.0174358394,-0.07579965144,0.04703662172
2.666,-1.016654611,4.355512619,7.387644768,0.01584758982,-0.07695156336,0.03892084211
2.668,-1.102596879,4.323506832,7.415216446,0.01457349956,-0.07742280513,0.03087487444
2.67,-1.181097984,4.293924332,7.439962387,0.01373574138,-0.07761479169,0.02382374369
2.672,-1.230772972,4.262636662,7.450928211,0.01213003788,-0.07705628872,0.01747074537
2.674,-1.257501841,4.226110935,7.473663807,0.010210176,-0.07525859773,0.01078613475
2.676,-1.273351431,4.174185753,7.500459671,0.008482299745,-0.07262314856,0.004904375412
2.678,-1.288817883,4.11974144,7.540308475,0.006527531426,-0.07091272622,0.0006283185212
2.68,-1.303652287,4.067097187,7.584122181,0.004764748737,-0.06991788745,-0.003944444004
2.682,-1.303729057,4.016283035,7.63425684,0.002478367416,-0.06729989499,-0.009599311277
2.684,-1.298758626,3.970074892,7.686862469,-0.0003316125658,-0.06401867419,-0.01443387289
2.686,-1.29651773,3.924173117,7.741392612,-0.003054326167,-0.06141813472,-0.01733111963
2.688,-1.307234168,3.896773815,7.801496506,-0.005742133129,-0.05941100791,-0.01916371472
2.69,-1.3101933,3.865783453,7.859148979,-0.008098327555,-0.05701990798,-0.02178170905
2.692,-1.301689267,3.811253071,7.92387867,-0.01127482671,-0.05321509019,-0.02474876866
2.694,-1.306420088,3.742549181,7.99418211,-0.01476548519,-0.04975933582,-0.0265988186
2.696,-1.315786242,3.657210112,8.054247856,-0.0177674517,-0.0470889844,-0.02829178795
2.698,-1.319166899,3.571497917,8.117129326,-0.0199316591,-0.04475024343,-0.02961823717
2.7,-1.316399217,3.481648207,8.195035934,-0.02145009674,-0.04284783453,-0.03014183603
2.702,-1.303384304,3.40766716,8.270386696,-0.02396337129,-0.04111995548,-0.03131120652
2.704,-1.295004487,3.332671404,8.334819794,-0.02687807009,-0.03979350626,-0.03274237737
2.706,-1.27204895,3.241844893,8.390996933,-0.0286932122,-0.0389382951,-0.03331833705
2.708,-1.256630301,3.178618908,8.447318077,-0.02944370359,-0.03858922794,-0.03354522958
2.71,-1.2384727,3.130581617,8.492721558,-0.0316253677,-0.03844960406,-0.03333579004
2.712,-1.237179756,3.082228184,8.530340195,-0.03504621238,-0.03965387866,-0.03324852139
2.714,-1.223178506,3.063246965,8.562306404,-0.03769911081,-0.04202752933,-0.03384193406
2.716,-1.21286428,3.03126049,8.589944839,-0.04005530477,-0.04553563893,-0.03534291685
2.718,-1.213946462,3.001495838,8.614079475,-0.04195771366,-0.04948008433,-0.03721041977
2.72,-1.225907803,2.990750551,8.635214806,-0.04398229718,-0.05234242231,-0.03829252347
2.722,-1.242638588,2.975399017,8.657892227,-0.04733332992,-0.05476843193,-0.03872885555
2.724,-1.26446414,2.966961622,8.677477837,-0.05122541264,-0.0576656796,-0.03954916075
2.726,-1.286873817,2.957624435,8.676567078,-0.05471607298,-0.06072000414,-0.0417657271
2.728,-1.302484035,2.94948411,8.67324543,-0.05738642439,-0.06260495633,-0.04392993823
2.73,-1.313468575,2.942924023,8.672334671,-0.05911429971,-0.06305874884,-0.04607669264
2.732,-1.342974782,2.95337224,8.666014671,-0.06169738993,-0.06323327869,-0.05010840297
2.734,-1.347236395,2.955574989,8.671310425,-0.06464699656,-0.06363470107,-0.05396557972
2.736,-1.364819407,2.942052603,8.684239388,-0.06647959352,-0.06410594285,-0.05742133036
2.738,-1.387315392,2.919537306,8.700614929,-0.06754424423,-0.0652404055,-0.06134832278
2.74,-1.399736404,2.8997612,8.715994835,-0.06955137104,-0.06571164727,-0.06421066076
2.742,-1.390418172,2.875244617,8.727851868,-0.07227408141,-0.06525786221,-0.06600835174
2.744,-1.384566903,2.844426632,8.744093895,-0.07494443655,-0.06414084882,-0.06864380091
2.746,-1.368506551,2.798563242,8.761695862,-0.07761479169,-0.06209881604,-0.07159340382
2.748,-1.360308886,2.741562128,8.782248497,-0.07902850956,-0.06000442058,-0.0731292963
2.75,-1.351622701,2.698361158,8.799151421,-0.08117526025,-0.05757841095,-0.07374016196
2.752,-1.335418701,2.666939735,8.828330994,-0.08424704522,-0.05375614017,-0.07494443655
2.754,-1.321206689,2.605868101,8.85146904,-0.08677776903,-0.04871213809,-0.07637561113
2.756,-1.298193574,2.545323849,8.870278358,-0.08874998987,-0.04413937777,-0.07696902007
2.758,-1.274826169,2.503090143,8.892916679,-0.09018116444,-0.04070107639,-0.07751007378
2.76,-1.266618848,2.446673155,8.921408653,-0.09203121066,-0.03710569814,-0.07836528122
2.762,-1.24861455,2.391185045,8.962838173,-0.09372418374,-0.03246312216,-0.07840018719
2.764,-1.232851028,2.350071669,9.003912926,-0.09536478668,-0.02743657492,-0.07778932154
2.766,-1.213630319,2.3050704,9.04690361,-0.09697049111,-0.02286381274,-0.07752752304
2.768,-1.188596725,2.270114899,9.090946198,-0.09794788063,-0.01877974346,-0.07648032904
2.77,-1.162461519,2.2331388,9.142700195,-0.09992010146,-0.01555088349,-0.07511897385
2.772,-1.149973392,2.207166672,9.189338684,-0.1029395163,-0.01328195538,-0.07422885299
2.774,-1.144648671,2.173437357,9.24024868,-0.1063778177,-0.01172861271,-0.07230898738
2.776,-1.145501018,2.150280476,9.282904625,-0.1096590385,-0.01172861271,-0.06962118298
2.778,-1.154934168,2.135742903,9.322868347,-0.1125737354,-0.01235693134,-0.06726498902
2.78,-1.166186929,2.10995245,9.351052284,-0.1159771308,-0.01293289009,-0.06536258012
2.782,-1.183195353,2.094562531,9.36459446,-0.1189441904,-0.01380555425,-0.06363470107
2.784,-1.205193281,2.080992222,9.36993885,-0.1214051023,-0.01572541706,-0.06072000414
2.786,-1.228168011,2.080580235,9.378192902,-0.1249306649,-0.01809906401,-0.05733406544
2.788,-1.254571319,2.072602987,9.37378788,-0.1285784096,-0.02000147291,-0.05501277745
2.79,-1.281137347,2.065563917,9.363214493,-0.130707711,-0.02267182618,-0.05248204991
2.792,-1.298710823,2.040309906,9.3639431,-0.1321912408,-0.02628465928,-0.04892157763
2.794,-1.32636857,2.016942501,9.359949112,-0.1337445825,-0.03090978041,-0.04527384043
2.796,-1.356075764,2.003755331,9.36184597,-0.1350186765,-0.0359537825,-0.0422020629
2.798,-1.387794137,1.98760879,9.364402771,-0.1361531317,-0.04115486518,-0.03937462717
2.8,-1.385572433,1.950536966,9.366452217,-0.1372526884,-0.04675737023,-0.03633775562
2.802,-1.408077836,1.926977992,9.373558998,-0.1383347958,-0.05187118426,-0.03256784379
2.804,-1.430564165,1.896993041,9.396168709,-0.1397136003,-0.058049649,-0.0288328398
2.806,-1.440754056,1.862899661,9.411510468,-0.1412320435,-0.06403613091,-0.02698278986
2.808,-1.441673398,1.827982545,9.426718712,-0.1421570629,-0.06932447851,-0.02591813914
2.81,-1.451202273,1.795651197,9.434610367,-0.1419127136,-0.07525859773,-0.02453932911
2.812,-1.44884634,1.778891802,9.431775093,-0.140219748,-0.08114035428,-0.022724187
2.814,-1.439863324,1.78047204,9.430042267,-0.1382824332,-0.08606218547,-0.02071705833
2.816,-1.427844524,1.784494281,9.430434227,-0.1365371048,-0.08934340626,-0.02021091245
2.818,-1.419771194,1.795890689,9.425244331,-0.1345648915,-0.09192649275,-0.02096140385
2.82,-1.405386806,1.802613616,9.412075996,-0.1321912408,-0.09456194192,-0.02188642882
2.822,-1.386893988,1.80173254,9.40855217,-0.1277406514,-0.09690067917,-0.02352703735
2.824,-1.380075336,1.794846773,9.411884308,-0.1221555918,-0.09815731645,-0.02515019476
2.826,-1.380965948,1.791648149,9.422332764,-0.1182984188,-0.09899507463,-0.02612757869
2.828,-1.384585977,1.784896493,9.435146332,-0.1154709831,-0.09964084625,-0.02778564207
2.83,-1.369157672,1.763932824,9.457680702,-0.1121025011,-0.09992010146,-0.02940879762
2.832,-1.366763592,1.748370647,9.483078003,-0.1078962535,-0.1003389806,-0.03070034087
2.834,-1.363813877,1.726707935,9.525857925,-0.1033409461,-0.1005135104,-0.03310889751
2.836,-1.354735136,1.703924537,9.568628311,-0.09864600748,-0.09930923581,-0.03598868847
2.838,-1.343424916,1.682903528,9.59982872,-0.09389871359,-0.09662142396,-0.0381179899
2.84,-1.329576731,1.667685986,9.626634598,-0.08974482864,-0.09332275391,-0.0396015197
2.842,-1.292830586,1.654192209,9.651045799,-0.08616690338,-0.09007643908,-0.04146902263
2.844,-1.281520367,1.639175773,9.666905403,-0.08344419301,-0.08592256159,-0.04349360615
2.846,-1.268007517,1.616220236,9.671904564,-0.08234463632,-0.0816988647,-0.04495968297
2.848,-1.247072577,1.608721614,9.659435272,-0.08283332735,-0.07840018719,-0.04586725309
2.85,-1.222728372,1.602352977,9.641115189,-0.08335692436,-0.07454301417,-0.04623377323
2.852,-1.206074357,1.603368163,9.629259109,-0.08262388408,-0.07012733072,-0.04605923966
