Time (s),Acceleration x (m/s^2),Acceleration y (m/s^2),Acceleration z (m/s^2),Gyroscope x (rad/s),Gyroscope y (rad/s),Gyroscope z (rad/s)
0.0,-1.445025325,0.5753266811,9.491132736,-0.1944645792,0.05862560868,-0.2403318435
0.002,-1.442745924,0.5860335231,9.493871689,-0.1988628209,0.06140068173,-0.2469117343
0.004,-1.434768438,0.6151182652,9.494647026,-0.202545464,0.06475171447,-0.2533869147
0.006,-1.414532661,0.6401329637,9.496170044,-0.2065771669,0.06894050539,-0.260438025
0.008,-1.396863461,0.6583672166,9.488183022,-0.2107485086,0.07412413508,-0.2677160501
0.01,-1.360768437,0.6575148106,9.473320007,-0.2146405876,0.07939502597,-0.274156332
0.012,-1.34931457,0.6587215066,9.474431038,-0.2187595665,0.08436921239,-0.2805616856
0.014,-1.327757239,0.6665553451,9.484323502,-0.2220058739,0.0901986137,-0.286652863
0.016,-1.307808757,0.657754302,9.496552467,-0.2246064246,0.09761626273,-0.292272836
0.018,-1.283186793,0.6605315208,9.51436615,-0.2269102484,0.1056796834,-0.2980498672
0.02,-1.255414009,0.6482444406,9.533337593,-0.2281668931,0.1133765876,-0.304490149
0.022,-1.245932937,0.6511175036,9.541180611,-0.2283763289,0.1209338605,-0.3124837577
0.024,-1.238951564,0.6460130811,9.541104317,-0.2278178334,0.128752932,-0.3207915127
0.026,-1.223312616,0.6171485782,9.553908348,-0.2269626111,0.137601763,-0.3282789886
0.028,-1.20913887,0.5932257175,9.571749687,-0.225985229,0.1478468478,-0.3360456824
0.03,-1.194122434,0.5386283398,9.582304001,-0.2240130156,0.1583188176,-0.344266206
0.032,-1.182208896,0.5202409029,9.592627525,-0.2213077545,0.1685813516,-0.3529753983
0.034,-1.152798533,0.5122538209,9.608658791,-0.2195798755,0.1787566245,-0.3615798652
0.036,-1.142541766,0.5158067942,9.618724823,-0.2182359695,0.1888969839,-0.3698178232
0.038,-1.131451726,0.547142148,9.619308472,-0.2164382786,0.1999623775,-0.3782128394
0.04,-1.130551577,0.5860526562,9.620630264,-0.2153910846,0.2120575011,-0.3863635361
0.042,-1.132821321,0.6320787668,9.626481056,-0.2146405876,0.2245540619,-0.3953694403
0.044,-1.135043144,0.7438018918,9.613743782,-0.2140297294,0.2365793735,-0.4050385654
0.046,-1.142541766,0.8225423694,9.600002289,-0.214082092,0.2465277612,-0.4143237174
0.048,-1.143365383,0.8689994216,9.595395088,-0.2134886682,0.2559350729,-0.4234866798
0.05,-1.128387213,0.9535243511,9.587303162,-0.2129127085,0.2660754323,-0.4328940213
0.052,-1.13611567,1.080637336,9.570016861,-0.2133141458,0.2759016454,-0.4423885942
0.054,-1.133855581,1.118877411,9.565420151,-0.2138028294,0.2855707705,-0.4519529939
0.056,-1.120515108,1.189879894,9.550767899,-0.2146231383,0.2942450643,-0.462459892
0.058,-1.131413579,1.247034311,9.550116539,-0.2162288427,0.3015579879,-0.4727398753
0.06,-1.126481414,1.310662627,9.567000389,-0.217817083,0.3086440265,-0.4819726646
0.062,-1.105690241,1.337822556,9.57026577,-0.21879448,0.3156253397,-0.4914149046
0.064,-1.103133202,1.348280311,9.569327354,-0.2194925994,0.3222575784,-0.5006302595
0.066,-1.102654457,1.350109458,9.572286606,-0.2204176337,0.3290643692,-0.5091125369
0.068,-1.099197149,1.363813877,9.578329086,-0.221115768,0.3349810541,-0.5182406306
0.07,-1.093451023,1.363296747,9.580809593,-0.2220233381,0.3386636972,-0.5276479125
0.072,-1.09291482,1.356487632,9.574508667,-0.2239781022,0.3420496285,-0.5362000465
0.074,-1.102606416,1.340705037,9.579699516,-0.2253918201,0.3469016552,-0.5441063643
0.076,-1.105795503,1.34374094,9.58646965,-0.2266135514,0.3523470759,-0.5520650744
0.078,-1.103631258,1.341011524,9.589974403,-0.2280447185,0.3570943773,-0.5597096086
0.08,-1.110210419,1.334863186,9.596716881,-0.22800982,0.361859113,-0.5669353008
0.082,-1.131087899,1.351641774,9.602865219,-0.227032423,0.3669554591,-0.5739864111
0.084,-1.143260002,1.383714437,9.612968445,-0.2263343036,0.3715631366,-0.5809503198
0.086,-1.153507233,1.402341485,9.611618042,-0.2260375917,0.3769038618,-0.5882108808
0.088,-1.156552553,1.438197017,9.613026619,-0.2256012559,0.3831870258,-0.5943195224
0.09,-1.176711798,1.488982797,9.619394302,-0.2247984111,0.3888942599,-0.5993286371
0.092,-1.184220076,1.544365525,9.628214836,-0.2238384783,0.394374609,-0.6048438549
0.094,-1.195645094,1.593188047,9.635532379,-0.223140344,0.4003959894,-0.6108652353
0.096,-1.205499768,1.650122046,9.639410019,-0.2231577933,0.406958431,-0.6164851785
0.098,-1.208410978,1.698025227,9.646162033,-0.2238035649,0.4124562144,-0.6219131947
0.1,-1.214808345,1.760810733,9.661619186,-0.2240653634,0.4165926278,-0.6279171109
0.102,-1.240857244,1.860438347,9.694611549,-0.2238559276,0.4201705754,-0.633833766
0.104,-1.239238739,1.930301189,9.714378357,-0.2243969738,0.4235216081,-0.6390872002
0.106,-1.235005856,1.954511404,9.720487595,-0.2255663574,0.4270995259,-0.6440613866
0.108,-1.227440238,2.029066801,9.744353294,-0.2263692021,0.4304505587,-0.6492450237
0.11,-1.209387898,2.073541403,9.760519028,-0.226055041,0.4330685437,-0.6548300982
0.112,-1.202253222,2.092417479,9.768390656,-0.2256187052,0.4354072809,-0.6605722308
0.114,-1.170745492,2.126798153,9.781568527,-0.2260724902,0.4379380047,-0.665755868
0.116,-1.131403923,2.156112909,9.79591465,-0.2262470275,0.4402244091,-0.6710093021
0.118,-1.091238737,2.166426897,9.813689232,-0.2253743708,0.4427376688,-0.6766292453
0.12,-1.054435134,2.177813768,9.820010185,-0.2237512022,0.4453382194,-0.6823888421
0.122,-1.005354047,2.192590714,9.826196671,-0.2205747068,0.4486019611,-0.6891432405
0.124,-0.9659742117,2.185762405,9.838722229,-0.2164382786,0.4530874789,-0.6963165402
0.126,-0.9218633771,2.189976215,9.843367577,-0.2128603607,0.4571191967,-0.7036643624
0.128,-0.8843702674,2.228158951,9.855079651,-0.2091951668,0.4619188309,-0.7113787532
0.13,-0.8436783552,2.269693613,9.882834435,-0.2051809132,0.4679751396,-0.71862185
0.132,-0.8097573519,2.299793482,9.908231735,-0.2013237327,0.4735950828,-0.7256904244
0.134,-0.7888798714,2.333781719,9.916812897,-0.1962971836,0.4787263572,-0.7335968018
0.136,-0.7659626007,2.346767902,9.923716545,-0.1910960972,0.4836656451,-0.7422012687
0.138,-0.7359009981,2.358757973,9.937804222,-0.1873960048,0.4881860316,-0.7507359385
0.14,-0.7310455441,2.373851061,9.944643021,-0.1830501258,0.4922352135,-0.7589564323
0.142,-0.7260751724,2.385429382,9.963010788,-0.1784424633,0.4957956672,-0.766723156
0.144,-0.7230010629,2.383791685,9.981273651,-0.174672544,0.4988150895,-0.774297893
0.146,-0.7297335267,2.392276764,10.00104046,-0.1706059277,0.5022534132,-0.7821169496
0.148,-0.7379504442,2.406239748,10.02921486,-0.1664346009,0.5049062967,-0.7912973762
0.15,-0.7474410534,2.443359375,10.05112648,-0.162839219,0.5063025355,-0.8010362983
0.152,-0.7684238553,2.483495951,10.0720911,-0.1588424146,0.508449316,-0.8106705546
0.154,-0.7742369175,2.535162687,10.08891678,-0.1537460536,0.510910213,-0.8199731112
0.156,-0.7752042413,2.597756863,10.11366272,-0.1475675851,0.513179183,-0.8294328451
0.158,-0.8017415404,2.669343233,10.13858223,-0.141266942,0.5153608322,-0.8395906091
0.16,-0.8058978915,2.746771812,10.1675806,-0.13459979,0.5171934366,-0.849416852
0.162,-0.8139806986,2.805506229,10.18268394,-0.1274613887,0.5185722113,-0.8590859771
0.164,-0.8122281432,2.867535353,10.19652176,-0.1198343039,0.5194448829,-0.8696626425
0.166,-0.8069512844,2.927467108,10.20698929,-0.1119803265,0.5210680366,-0.8802742362
0.168,-0.8055914044,2.976050377,10.19752693,-0.1037423685,0.5226737261,-0.8905891776
0.17,-0.7811992764,3.004713535,10.18704128,-0.0947015658,0.523947835,-0.9017418027
0.172,-0.7435719967,3.049829721,10.17991638,-0.0853466019,0.5260596871,-0.9128944874
0.174,-0.7294175029,3.07076478,10.17644882,-0.07648032904,0.5287998319,-0.9234362245
0.176,-0.6913784146,3.103421688,10.17788601,-0.06878342479,0.5308768153,-0.9337337017
0.178,-0.6564996839,3.128608704,10.19116879,-0.06089453772,0.5329712033,-0.9439089894
0.18,-0.64370507,3.140579939,10.19611073,-0.0526391305,0.5354146361,-0.9537351727
0.182,-0.6093626022,3.153632879,10.19671345,-0.04455825686,0.5373519659,-0.9640500546
0.184,-0.5825954676,3.168879032,10.20152187,-0.03652974218,0.539394021,-0.9745743871
0.186,-0.565472126,3.203116179,10.21461201,-0.02914699912,0.541488409,-0.9845227599
0.188,-0.5423440933,3.223399878,10.22299194,-0.02267182618,0.5436177254,-0.9945758581
0.19,-0.5040081739,3.231980801,10.25108147,-0.01656317525,0.546043694,-1.004663825
0.192,-0.4927746058,3.240370035,10.2628603,-0.01029744279,0.5489409566,-1.014455199
0.194,-0.4681909084,3.242457867,10.27526283,-0.003647738136,0.5513843894,-1.023810148
0.196,-0.447303921,3.244478464,10.29034615,0.002216568217,0.5533217192,-1.032658935
0.198,-0.4141011238,3.26354599,10.31154919,0.006806783844,0.5559920669,-1.041001678
0.2,-0.3909922838,3.271264791,10.3275423,0.01120501384,0.5586624146,-1.049134851
0.202,-0.3725281954,3.290811062,10.35915565,0.01583013684,0.5600761771,-1.057494998
0.204,-0.3734284341,3.296269894,10.37244797,0.02024581842,0.5606346726,-1.065628171
0.206,-0.3550409675,3.29731369,10.40180111,0.0245567821,0.5611931682,-1.07304585
0.208,-0.3200856149,3.314599752,10.42608833,0.02822197415,0.5620483756,-1.078910232
0.21,-0.2901389599,3.330612421,10.44415951,0.03127630055,0.5623974204,-1.084128737
0.212,-0.2673365474,3.343512297,10.46709538,0.03347541392,0.562222898,-1.091930389
0.214,-0.247052893,3.350809813,10.4984684,0.0340513736,0.562153101,-1.101739049
0.216,-0.2238578647,3.361880541,10.52801323,0.03364994749,0.5624323487,-1.109523296
0.218,-0.1939877868,3.383495331,10.56978703,0.0334928669,0.5609662533,-1.117115378
0.22,-0.1647210717,3.409707069,10.60915852,0.03310889751,0.5575454235,-1.125562787
0.222,-0.1361055821,3.436771154,10.63301373,0.03232349828,0.5536184311,-1.133731008
0.224,-0.1097023264,3.453329563,10.64104843,0.0307352487,0.5485395193,-1.1424402
0.226,-0.09240660816,3.472550154,10.65853596,0.02789036185,0.5430068374,-1.151027203
0.228,-0.07505343854,3.475988388,10.68360806,0.02483603545,0.5375962853,-1.159875989
0.23,-0.0534290038,3.466449738,10.70794201,0.02169444226,0.5325523019,-1.167904496
0.232,-0.01746809669,3.466842175,10.74256229,0.01694714651,0.5251346827,-1.176229715
0.234,0.02203623205,3.473507881,10.77824593,0.01185078546,0.5148546696,-1.186247945
0.236,0.07768705487,3.488687038,10.81588268,0.008517206647,0.5037369132,-1.196004272
0.238,0.1252646297,3.499700546,10.84816647,0.006527531426,0.4941550791,-1.203439474
0.24,0.1475307196,3.50363636,10.87337208,0.00415388355,0.4845732152,-1.209949493
0.242,0.1776018888,3.494212866,10.88150311,0.001274090377,0.4705756605,-1.218588829
0.244,0.1938920319,3.493887186,10.89912415,-0.002076941775,0.455722928,-1.227786779
0.246,0.2199026346,3.510263681,10.90654659,-0.005654866807,0.4439943135,-1.235012412
0.248,0.2340188473,3.537988424,10.90744591,-0.006806783844,0.4325798452,-1.241417766
0.25,0.2482308298,3.55637598,10.89718056,-0.006318091881,0.4187917411,-1.248119831
0.252,0.2598379254,3.567322254,10.88191509,-0.005183627829,0.4024380147,-1.256218195
0.254,0.2668481469,3.577378035,10.85111618,-0.003769911127,0.3866427839,-1.265206575
0.256,0.2680260837,3.592336893,10.82255745,-0.002251474652,0.3735702634,-1.273270011
0.258,0.2728240788,3.608923912,10.80116272,-0.0003665191471,0.3628888428,-1.279413581
0.26,0.2636494935,3.614890099,10.76892757,0.002914699726,0.3534989953,-1.284422755
0.262,0.250462234,3.634043932,10.73216248,0.007400196046,0.3427303135,-1.290566206
0.264,0.2310500294,3.645315647,10.6947937,0.01207767799,0.3313856721,-1.296221137
0.266,0.2064759582,3.644750834,10.65045357,0.01619665511,0.3220481575,-1.300113201
0.268,0.1986900121,3.635844231,10.61437702,0.01975712739,0.3144559562,-1.303272247
0.27,0.1797758192,3.622714281,10.56987381,0.02405063622,0.3066368997,-1.306134582
0.272,0.140836522,3.604279041,10.50619698,0.02926917188,0.2977706194,-1.308874726
0.274,0.1169040799,3.5918293,10.48491764,0.033911746,0.2894279361,-1.311562538
0.276,0.08896853775,3.556864262,10.44376659,0.03707079217,0.2838079929,-1.313307881
0.278,0.07009264827,3.542403221,10.40605259,0.03993313387,0.2802649736,-1.313691854
0.28,0.05455906689,3.532979727,10.36284256,0.04298745841,0.276617229,-1.313534737
0.282,0.03407428041,3.511374474,10.32300282,0.04455825686,0.2726029754,-1.312836647
0.284,0.02975513786,3.472167015,10.27489853,0.04455825686,0.2678207755,-1.311597466
0.286,0.01878969558,3.429540873,10.2306633,0.0451865755,0.2630211115,-1.310480475
0.288,0.006330269389,3.403673887,10.18444538,0.04607669264,0.2591813803,-1.309380889
0.29,0.001340752933,3.369417429,10.13520241,0.04581489414,0.2554114759,-1.307670474
0.292,-0.003505111206,3.34382844,10.09499836,0.04349360615,0.251973182,-1.304773211
0.294,-0.007517793216,3.297486067,10.06240845,0.04033455998,0.2499486059,-1.302015662
0.296,-0.01002691686,3.254945993,10.02376556,0.03652974218,0.2488141358,-1.299938679
0.298,-0.008810662664,3.224683285,9.990275383,0.03246312216,0.2483429015,-1.29751265
0.3,-0.02037944458,3.208163261,9.963700294,0.02953097038,0.2491108477,-1.295907021
0.302,-0.03219722211,3.195483685,9.942229271,0.02677335031,0.2503674924,-1.295557857
0.304,-0.0454515256,3.180122375,9.92102623,0.02185152285,0.25213027,-1.295732379
0.306,-0.07281246036,3.17062211,9.895187378,0.01637118869,0.2541199327,-1.296430588
0.308,-0.1082179174,3.177029133,9.867290497,0.01193805225,0.2565110326,-1.29829812
0.31,-0.1474445164,3.198097944,9.846633911,0.007609635592,0.258413434,-1.301265121
0.312,-0.178990528,3.225660086,9.830093384,0.003630284918,0.2591988444,-1.304371834
0.314,-0.2138788253,3.257962704,9.79983139,-0.0001745329209,0.259844631,-1.30753088
0.316,-0.248834163,3.275746822,9.773532867,-0.003298672382,0.2591464818,-1.311021566
0.318,-0.2824966311,3.293166876,9.742054939,-0.006161012221,0.257296443,-1.314337611
0.32,-0.3224893808,3.310730934,9.722039223,-0.008272860199,0.2555860281,-1.317583919
0.322,-0.3414036036,3.303586483,9.694467545,-0.00881391298,0.2536312342,-1.321109533
0.324,-0.3704596162,3.294162989,9.653315544,-0.007452555932,0.2518859208,-1.324443102
0.326,-0.3901303709,3.280027628,9.610297203,-0.004694935866,0.2502278686,-1.327375293
0.328,-0.4178456664,3.260835648,9.569576263,-0.001989675453,0.2476622164,-1.330464482
0.33,-0.4272979796,3.233072519,9.53584671,0.001623156248,0.2431418151,-1.334251881
0.332,-0.4381389022,3.195119619,9.505843163,0.006562437862,0.2372076958,-1.339260936
0.334,-0.42593804,3.161505222,9.474143982,0.01425934024,0.2303660065,-1.346032858
0.336,-0.4228160083,3.11290288,9.443440437,0.02307325229,0.2244318873,-1.351949453
0.338,-0.4127220809,3.07676959,9.416003227,0.03202679008,0.2194751501,-1.356557131
0.34,-0.39067626,3.047866583,9.395402908,0.042620942,0.2124240249,-1.362229466
0.342,-0.3607678711,3.015458822,9.370791435,0.05419247225,0.2032261342,-1.368320704
0.344,-0.3561901748,3.000030518,9.328883171,0.0683645457,0.193173036,-1.374917984
0.346,-0.3564200103,2.98338604,9.290977478,0.08140215278,0.1843591332,-1.380119085
0.348,-0.3462877572,2.962077618,9.252842903,0.09238027781,0.1769763827,-1.383487582
0.35,-0.341030091,2.954339504,9.205916405,0.1041088924,0.1695412844,-1.386454701
0.352,-0.3655179739,2.936239481,9.138102531,0.1161516607,0.1614778638,-1.38797307
0.354,-0.3740604818,2.927649021,9.11516571,0.1311440468,0.1512502283,-1.388583899
0.356,-0.3855430782,2.907221794,9.053827286,0.1473581493,0.140446648,-1.388845801
0.358,-0.3982132077,2.901772499,8.990543365,0.1599419713,0.1303761005,-1.387990594
0.36,-0.3995635509,2.89924407,8.944689751,0.1691747606,0.1209164113,-1.386698961
0.362,-0.3955795765,2.897357702,8.90623951,0.1779886782,0.1117010713,-1.384918809
0.364,-0.4058842063,2.884562969,8.853068352,0.1888271719,0.1003564298,-1.381654978
0.366,-0.4080964625,2.864384413,8.801134109,0.1989326328,0.08976228535,-1.378129482
0.368,-0.4199142456,2.839408159,8.757338524,0.2071356773,0.08133234084,-1.373539209
0.37,-0.4390295446,2.807594299,8.719854355,0.2155307084,0.07253587991,-1.367238522
0.372,-0.4588822722,2.774104118,8.688797951,0.223367244,0.06265731901,-1.360588908
0.374,-0.4838202894,2.731228828,8.659358025,0.2297202349,0.05262167752,-1.35407877
0.376,-0.5170134902,2.676516294,8.629478455,0.2373473197,0.04096287861,-1.345753551
0.378,-0.5385612845,2.636552572,8.594293594,0.2454980165,0.02897246554,-1.336992025
0.38,-0.5557325482,2.587327719,8.567430496,0.2507165372,0.02061233856,-1.330586672
0.382,-0.5724153519,2.55543685,8.548985481,0.2547307909,0.01310742274,-1.324512959
0.384,-0.5891938806,2.529426336,8.513551712,0.2579421997,0.004677482415,-1.317932963
0.386,-0.6209027171,2.495715857,8.487875938,0.2602111399,-0.003473205259,-1.311475277
0.388,-0.6777505875,2.470299006,8.461913109,0.2620611787,-0.01089085452,-1.305366635
0.39,-0.7217081189,2.449641943,8.428701401,0.2640857697,-0.01738347858,-1.30035758
0.392,-0.7351635695,2.427911997,8.391399384,0.2658660114,-0.02254965343,-1.296430588
0.394,-0.7742081881,2.39364624,8.342653275,0.2675240636,-0.02591813914,-1.292294145
0.396,-0.7934097052,2.36142993,8.29254818,0.2697755396,-0.02823942713,-1.288087845
0.398,-0.8095466495,2.352245569,8.234588623,0.2719571888,-0.03043854237,-1.284806728
0.4,-0.8244864345,2.345791101,8.16567421,0.2744355798,-0.03197443113,-1.282834411
0.402,-0.8194969296,2.317405224,8.095380783,0.2773328125,-0.03227113932,-1.281089067
0.404,-0.8120940328,2.303394556,8.019081116,0.2804045975,-0.03303908184,-1.278802752
0.406,-0.8262581825,2.290130615,7.93306303,0.2835461795,-0.0346098803,-1.277231932
0.408,-0.8339962363,2.284279108,7.840493679,0.288607657,-0.03556980938,-1.27532959
0.41,-0.8491850495,2.264914751,7.754627705,0.295414418,-0.03658210114,-1.272345066
0.412,-0.8606675863,2.235925674,7.667239189,0.3022910357,-0.0392000936,-1.268924117
0.414,-0.8817749023,2.204896927,7.591256618,0.3085567653,-0.04248131439,-1.265014648
0.416,-0.9142785668,2.178033829,7.516902924,0.314892292,-0.04602433369,-1.259935737
0.418,-0.9441486597,2.138998985,7.430950642,0.3218910694,-0.05094616115,-1.253774762
0.42,-0.9661944509,2.106715679,7.345439434,0.3288374841,-0.05703736097,-1.247474074
0.422,-0.9888532162,2.080676317,7.244806767,0.3357838988,-0.06457718462,-1.240492821
0.424,-1.014634013,2.058065414,7.147314548,0.3420670927,-0.07237880677,-1.231975555
0.426,-1.025225997,2.038787127,7.051086903,0.3481059074,-0.08093091846,-1.222812533
0.428,-1.02443099,2.011723042,6.931491852,0.3543542027,-0.09072221071,-1.213091135
0.43,-1.060229182,1.994082808,6.813275337,0.360358119,-0.1010196581,-1.20251441
0.432,-1.151160836,1.988844275,6.688183308,0.3650181592,-0.1115090847,-1.191571236
0.434,-1.177573681,1.980703831,6.645231247,0.3697479963,-0.1221032366,-1.179859996
0.436,-1.247043967,1.957709908,6.556052208,0.3757868409,-0.1336747706,-1.167834759
0.438,-1.314483762,1.951485157,6.482722759,0.3817209601,-0.1456477195,-1.155355573
0.44,-1.379606128,1.961674809,6.407525539,0.3872885704,-0.1577777565,-1.142073631
0.442,-1.444287896,1.963772058,6.342441559,0.3920707703,-0.1702917814,-1.128145933
0.444,-1.496778369,1.973779917,6.276782513,0.3965562582,-0.1816887707,-1.114270568
0.446,-1.539672852,1.972151875,6.218096256,0.4002737999,-0.1920211166,-1.100744247
0.448,-1.586532116,1.958667755,6.179032326,0.4020889401,-0.2038020939,-1.087340117
0.45,-1.65426898,1.932417631,6.14574337,0.4025252759,-0.2164906412,-1.074930787
0.452,-1.709412098,1.873146892,6.091069221,0.4014431834,-0.2285857648,-1.063882947
0.454,-1.754040003,1.812429786,6.05790472,0.3997327685,-0.2395115346,-1.054021835
0.456,-1.796618581,1.752546072,6.021829128,0.3974638283,-0.249651894,-1.045277715
0.458,-1.801828384,1.687672734,5.972058773,0.3955788612,-0.2594431937,-1.036987424
0.46,-1.814488888,1.60875988,5.920956612,0.3945142329,-0.2691297829,-1.028871536
0.462,-1.831573844,1.521266222,5.901602268,0.3924896419,-0.279689014,-1.021157265
0.464,-1.829830885,1.454563737,5.886460781,0.3913551867,-0.2896722853,-1.012954235
0.466,-1.812161684,1.384624243,5.878799438,0.3927863538,-0.2987829149,-1.0048908
0.468,-1.806377292,1.326435685,5.882840633,0.3946363926,-0.3088011146,-0.997508049
0.47,-1.8027668,1.262050748,5.892369747,0.3957010508,-0.3188891113,-0.990072906
0.472,-1.793161273,1.18940115,5.911245823,0.3977081776,-0.3277204633,-0.9829519987
0.474,-1.78892839,1.102338433,5.928473949,0.4007450342,-0.3360456824,-0.9753074646
0.476,-1.785126328,1.027553082,5.942504406,0.4035550356,-0.3444930911,-0.9674708843
0.478,-1.780414581,0.9571156502,5.956189632,0.406277746,-0.3536036909,-0.9608037472
0.48,-1.788382411,0.8880764842,5.96152401,0.4095938802,-0.3633251786,-0.9539969563
0.482,-1.783076882,0.8176390529,5.96538353,0.4128401875,-0.3729594052,-0.945217967
0.484,-1.773145795,0.7602930665,5.980122089,0.4163657427,-0.3831870258,-0.9356535673
0.486,-1.765944004,0.7051594257,5.995416164,0.4203276336,-0.3939906359,-0.9260717034
0.488,-1.758426309,0.6709797978,6.003355503,0.4241499007,-0.4050036371,-0.9155473709
0.49,-1.747968435,0.6299335957,6.006151676,0.4282339811,-0.4161213934,-0.9040107131
0.492,-1.73629415,0.5833137035,6.005309105,0.4333652556,-0.426645726,-0.8914094567
0.494,-1.719506145,0.5505802035,5.995435715,0.4392470121,-0.4369257092,-0.8774468303
0.496,-1.715445518,0.512167573,5.985676765,0.4438372254,-0.4477293193,-0.86198318
0.498,-1.714420795,0.4820964634,5.979317665,0.4479213059,-0.4593881071,-0.8449487686
0.5,-1.716709733,0.4621479809,5.968601227,0.4530525804,-0.4717101455,-0.8272860646
0.502,-1.722982407,0.4313489795,5.951554775,0.4583060145,-0.4846255779,-0.809047401
0.504,-1.721507668,0.4005786777,5.918830395,0.4626518786,-0.4996702969,-0.7848920226
0.506,-1.713261962,0.3774602711,5.87933588,0.4656887352,-0.5133537054,-0.7611730099
0.508,-1.710906148,0.3667533994,5.836153984,0.4669104815,-0.525239408,-0.7417474985
0.51,-1.70997715,0.3595995307,5.794580936,0.467102468,-0.5386086106,-0.7199308872
0.512,-1.694903374,0.3339432776,5.749139309,0.4668581188,-0.5525712371,-0.6965434551
0.514,-1.678411961,0.3080475628,5.706215858,0.466125071,-0.5670923591,-0.6721960902
0.516,-1.665368438,0.2810314,5.679553986,0.4645717442,-0.5796238184,-0.6480756402
0.518,-1.657860279,0.2640995979,5.672821522,0.4626693428,-0.5891533494,-0.6243566275
0.52,-1.629522443,0.2414983362,5.650565147,0.4606447518,-0.5980719924,-0.6011437774
0.522,-1.618566513,0.2162826061,5.619469166,0.4585503638,-0.6051928997,-0.5790653229
0.524,-1.619658351,0.1735030115,5.603083134,0.4561243355,-0.609346807,-0.5577723384
0.526,-1.632893443,0.1167316958,5.585902214,0.4522846341,-0.6122964025,-0.5371076465
0.528,-1.659957528,0.06271850318,5.546656609,0.4482005537,-0.6144431829,-0.5170188546
0.53,-1.658089995,-0.02270660922,5.501568794,0.4433834553,-0.6162583232,-0.4980995059
0.532,-1.647680044,-0.1072219312,5.468988895,0.4370130002,-0.61826545,-0.4815712571
0.534,-1.628191233,-0.1863933802,5.41118288,0.4293684363,-0.6193999052,-0.46694538
0.536,-1.624303102,-0.2868923843,5.378602982,0.4205719829,-0.6195394993,-0.4531049132
0.538,-1.652305722,-0.3873722553,5.377587795,0.4119326174,-0.618335247,-0.4405210912
0.54,-1.71927619,-0.5032708049,5.386953831,0.4036946595,-0.6150191426,-0.4294033647
0.542,-1.73865962,-0.6169378757,5.400361538,0.3946538568,-0.6108129025,-0.4201531112
0.544,-1.747135162,-0.7184999585,5.405887127,0.3852814436,-0.6062575579,-0.4119675159
0.546,-1.75603199,-0.8030822873,5.418336868,0.3758043051,-0.6015800834,-0.4042007923
0.548,-1.744329214,-0.8785666227,5.433018208,0.3675139844,-0.5965011716,-0.3979001641
0.55,-1.728642344,-0.9459011555,5.419457436,0.3613006175,-0.590026021,-0.3915471733
0.552,-1.719161391,-1.017669797,5.416785717,0.3559249938,-0.5839173794,-0.3845309317
0.554,-1.721153378,-1.088700891,5.420635223,0.3515442312,-0.5804790258,-0.377584517
0.556,-1.73020339,-1.175342321,5.40166378,0.3484898806,-0.5793969631,-0.370323956
0.558,-1.741628528,-1.279901981,5.385804653,0.3466049433,-0.5808455944,-0.363586992
0.56,-1.769075632,-1.390054345,5.377281189,0.3452261388,-0.5858546495,-0.355802834
0.562,-1.797231436,-1.507245779,5.365357876,0.3446501791,-0.5929581523,-0.3463082314
0.564,-1.829007268,-1.625557661,5.369648457,0.3431491852,-0.6012135744,-0.3364471197
0.566,-1.874564171,-1.76157701,5.360349655,0.3400250375,-0.6111968756,-0.3258180618
0.568,-1.917046905,-1.892558932,5.35248661,0.3381226361,-0.6218782663,-0.3132691383
0.57,-1.93315506,-2.012613773,5.36191988,0.3370230794,-0.6331880093,-0.2980673313
0.572,-1.952394843,-2.122632027,5.364304543,0.3346843421,-0.6466270089,-0.281783402
0.574,-1.972525239,-2.222460985,5.364275932,0.3318394423,-0.6621953845,-0.2647315264
0.576,-1.997310042,-2.323333263,5.374005795,0.3287851214,-0.6783047318,-0.2464230359
0.578,-2.028473139,-2.436914206,5.368298531,0.3256609738,-0.6949726343,-0.2266659141
0.58,-2.047071218,-2.553761005,5.364840984,0.3231128156,-0.7112216949,-0.2053728998
0.582,-2.069624424,-2.652248859,5.363586426,0.3208264112,-0.7269994617,-0.1828057915
0.584,-2.077286005,-2.748610497,5.352017403,0.3179815412,-0.7435102463,-0.1591042131
0.586,-2.089008093,-2.842808008,5.349833965,0.3140021861,-0.7597069144,-0.1343030781
0.588,-2.071923018,-2.942722797,5.340755463,0.3095341325,-0.7757639289,-0.1087514684
0.59,-2.053200483,-3.031059265,5.337068558,0.3045599461,-0.7927285433,-0.08255407214
0.592,-2.029219866,-3.107233047,5.343570709,0.2993763387,-0.8090997338,-0.05675810575
0.594,-1.999091387,-3.168103456,5.356585979,0.2953795195,-0.8230100274,-0.03267256171
0.596,-1.971098423,-3.218219042,5.371717453,0.2909114659,-0.8343721032,-0.009930923581
0.598,-1.923032403,-3.254859924,5.384981155,0.2862514555,-0.8440412283,0.01130973361
0.6,-1.867869973,-3.294316053,5.381897449,0.2824466228,-0.8517555594,0.03227113932
0.602,-1.806865692,-3.312895298,5.382251263,0.2790083289,-0.8574278951,0.05311036855
0.604,-1.751483083,-3.31957984,5.372722626,0.2763554454,-0.86289078,0.07264060527
0.606,-1.69545877,-3.332680941,5.352965832,0.2746450007,-0.8676380515,0.09068730474
0.608,-1.62664938,-3.340562582,5.341866016,0.2736327052,-0.8711462021,0.1075122803
0.61,-1.568968296,-3.344268799,5.350667477,0.2732138336,-0.8732231259,0.123813659
0.612,-1.538274527,-3.357101917,5.356863499,0.2727251351,-0.8727868199,0.139923051
0.614,-1.493225336,-3.381187439,5.372387886,0.2725331485,-0.8719839454,0.1559626162
0.616,-1.473430037,-3.403989792,5.390975952,0.2734058201,-0.8719839454,0.1703790426
0.618,-1.446883202,-3.440716743,5.413223267,0.2746973634,-0.8713381886,0.1831897646
0.62,-1.428495646,-3.512897253,5.44630146,0.2755525708,-0.8701338768,0.1959655732
0.622,-1.455224514,-3.61412406,5.505792618,0.275570035,-0.8693310618,0.2084446698
0.624,-1.484357119,-3.718971014,5.566222191,0.2771582901,-0.868371129,0.220138371
0.626,-1.521716356,-3.839792013,5.607134342,0.280963093,-0.8673413396,0.2318495363
0.628,-1.556355596,-3.96317935,5.623338223,0.284401387,-0.8669224977,0.2438748628
0.63,-1.590745926,-4.094726562,5.626134872,0.286129266,-0.8677079082,0.2563539743
0.632,-1.614630461,-4.232689857,5.608446121,0.2877698839,-0.8692786694,0.2702642381
0.634,-1.632654071,-4.359764576,5.590126038,0.2903355062,-0.871512711,0.2853962481
0.636,-1.661987782,-4.462370396,5.557124138,0.2935818434,-0.8746193647,0.3019768596
0.638,-1.691532254,-4.557899475,5.520186424,0.2955366075,-0.878092587,0.3200759292
0.64,-1.745181561,-4.649367332,5.486485481,0.2953969836,-0.8823512197,0.3397632539
0.642,-1.802469969,-4.718703747,5.443974018,0.2943846881,-0.8866097927,0.3613529801
0.644,-1.84882164,-4.79254055,5.401903152,0.2920808494,-0.8908684254,0.3846531212
0.646,-1.883767486,-4.856561661,5.362561703,0.288607657,-0.8970293999,0.4092797041
0.648,-1.914719701,-4.925294399,5.334444523,0.2843664885,-0.90362674,0.4347789586
0.65,-1.932321906,-4.98236227,5.308921814,0.2785370946,-0.9082169533,0.4609414637
0.652,-1.950402975,-5.038674355,5.279798985,0.2714161575,-0.9122835994,0.4880115092
0.654,-1.982341528,-5.094947338,5.265175343,0.2641032338,-0.917414844,0.5160589218
0.656,-2.015917778,-5.14469862,5.263461113,0.2557605505,-0.9232966304,0.5448394418
0.658,-2.029373407,-5.169225216,5.266477585,0.2463706732,-0.9301034212,0.573602438
0.66,-2.022698164,-5.170048714,5.255674839,0.2381327152,-0.9379224777,0.6033079624
0.662,-2.011522055,-5.139412403,5.246710777,0.2306801677,-0.9464746118,0.6340257525
0.664,-1.993115425,-5.100971222,5.240869045,0.2219535261,-0.9543809295,0.6642025113
0.666,-1.94650507,-5.058440208,5.221897602,0.2130348831,-0.9598088861,0.6941523552
0.668,-1.880865693,-5.021033764,5.211851597,0.2040464431,-0.9661095738,0.723718226
0.67,-1.815465689,-4.975179672,5.215040684,0.195651412,-0.9746791124,0.7527779341
0.672,-1.767868996,-4.959962368,5.232662201,0.1890715212,-0.9825854301,0.7816631794
0.674,-1.730787635,-4.949236393,5.249085903,0.1835562736,-0.9892700911,0.8095186353
0.676,-1.686389565,-4.954484463,5.26845026,0.1797340065,-0.9954659939,0.8353843689
0.678,-1.639673829,-4.982257366,5.308692455,0.1778665036,-1.001784086,0.8600982428
0.68,-1.605580449,-5.028302193,5.352937222,0.1770985574,-1.008451223,0.8843758106
0.682,-1.587805748,-5.059944153,5.380805492,0.1780584902,-1.015589595,0.9062447548
0.684,-1.57268405,-5.088684082,5.410982132,0.1809731871,-1.023234129,0.9258797169
0.686,-1.555072308,-5.125554562,5.437729836,0.1856332123,-1.029814124,0.944607079
0.688,-1.544547319,-5.163775921,5.470865726,0.1935221106,-1.03470099,0.9616938829
0.69,-1.547506571,-5.185869694,5.504604816,0.2039940804,-1.038575649,0.9762324691
0.692,-1.553501725,-5.231139183,5.545497894,0.215199098,-1.040792227,0.9875072837
0.694,-1.563480735,-5.303596973,5.60124445,0.2260724902,-1.042328119,0.9971589446
0.696,-1.577223539,-5.364400387,5.672496319,0.2368062735,-1.043584704,1.006444097
0.698,-1.604670644,-5.440057278,5.736947536,0.2487617731,-1.043148398,1.014961362
0.7,-1.625260711,-5.534015179,5.800441742,0.2612059712,-1.040757298,1.022850156
0.702,-1.64535296,-5.637492657,5.860574722,0.2731963992,-1.036952496,1.030477285
0.704,-1.677981138,-5.767037868,5.91549778,0.2853438854,-1.031925917,1.037685513
0.706,-1.712725759,-5.896248341,5.963103771,0.2972470224,-1.025764942,1.044404984
0.708,-1.756434202,-6.023629189,6.015058041,0.3083996773,-1.019167542,1.050304174
0.71,-1.793419957,-6.151795864,6.0564394,0.3192381859,-1.011749864,1.055540204
0.712,-1.8091259,-6.289951324,6.074664593,0.3302861154,-1.001784086,1.062731028
0.714,-1.828806162,-6.426286221,6.094603062,0.3385764062,-0.9913993478,1.070375562
0.716,-1.859193325,-6.553696156,6.122356892,0.3435331583,-0.9808750153,1.076972842
0.718,-1.860706568,-6.672036648,6.165883064,0.3474252522,-0.9680643082,1.085647106
0.72,-1.846877575,-6.769768238,6.210817814,0.3499734104,-0.9543285966,1.096764922
0.722,-1.808943868,-6.844361782,6.265827179,0.349432379,-0.9408372045,1.109488368
0.724,-1.758148551,-6.896526814,6.327875137,0.3457322717,-0.9268396497,1.12413168
0.726,-1.705054641,-6.933340073,6.385527134,0.3407580853,-0.9122835994,1.140520334
0.728,-1.633506298,-6.958134174,6.424179554,0.3333579004,-0.8981638551,1.157921195
0.73,-1.544413328,-6.969846725,6.475022793,0.3224670291,-0.8845328689,1.176037788
0.732,-1.451010704,-6.967251301,6.529112339,0.3085567653,-0.870762229,1.197941661
0.734,-1.355185151,-6.939421177,6.598669052,0.292796433,-0.8582133055,1.221381426
0.736,-1.240330577,-6.890368462,6.667105198,0.2791305184,-0.8490154147,1.239445567
0.738,-1.130810142,-6.824528217,6.727639675,0.2663023472,-0.8421038985,1.255310655
0.74,-1.029659867,-6.763226986,6.799465656,0.2509783506,-0.8361349106,1.273462057
0.742,-0.9252823591,-6.696160793,6.8842206,0.2346420586,-0.8292931914,1.292835236
0.744,-0.8273115754,-6.620714664,6.998385906,0.2182010561,-0.8220849633,1.312086225
0.746,-0.7227041721,-6.529916763,7.092391491,0.2014109939,-0.8156796098,1.330656528
0.748,-0.6023045182,-6.418998718,7.176006794,0.1844813079,-0.8089775443,1.348633409
0.75,-0.4951783717,-6.302573204,7.236264229,0.1687384248,-0.8030783534,1.367308378
0.752,-0.3611605465,-6.191807747,7.287863731,0.1541300267,-0.7990989685,1.386594296
0.754,-0.2247197777,-6.082335472,7.340019226,0.1406211704,-0.7955908775,1.405792952
0.756,-0.1687050313,-6.033311367,7.36967802,0.129433617,-0.7925888896,1.424991488
0.758,-0.04853525385,-5.956830978,7.41882658,0.1210909411,-0.7910530567,1.443212748
0.76,0.09449435771,-5.909282207,7.479917049,0.1154884398,-0.7907388806,1.461050034
0.762,0.119202517,-5.903411388,7.502882481,0.1122595742,-0.7918733358,1.478084445
0.764,0.161838457,-5.925821781,7.542674065,0.110933125,-0.7948578596,1.493548036
0.766,0.1865849346,-5.988616467,7.589848995,0.113254413,-0.7989244461,1.507737517
0.768,0.1803600043,-6.083321571,7.627993584,0.1195550561,-0.803409934,1.520443559
0.77,0.1110909581,-6.266956806,7.675552368,0.1284213215,-0.8077558279,1.531299472
0.772,0.04923436418,-6.395717144,7.716340065,0.1396263391,-0.8104785681,1.540148377
0.774,-0.00041180267,-6.510332584,7.735934258,0.1523846984,-0.8100072742,1.547216892
0.776,-0.03716758639,-6.57143259,7.734899521,0.1670454592,-0.8069704175,1.551667571
0.778,-0.1174595356,-6.721922398,7.744888306,0.1837482601,-0.802903831,1.554111004
0.78,-0.2280620784,-6.935581207,7.765392303,0.2018996924,-0.7968300581,1.556065798
0.782,-0.264118731,-7.006545067,7.763199329,0.2209761292,-0.7883477807,1.556851149
0.784,-0.3413940072,-7.145600319,7.769356728,0.2410474271,-0.7782772183,1.557165265
0.786,-0.4211783707,-7.269782543,7.780552387,0.2618517578,-0.764698565,1.559189916
0.788,-0.4997752309,-7.398686409,7.786681175,0.2835636437,-0.7478212118,1.562226772
0.79,-0.6069588661,-7.580530643,7.818907261,0.3053453565,-0.7327415943,1.564408422
0.792,-0.6863027215,-7.690970898,7.846249104,0.3252595663,-0.7177666426,1.566886783
0.794,-0.749356389,-7.78544569,7.894573689,0.3450515866,-0.6987251043,1.571354866
0.796,-0.8058691621,-7.884489059,7.972940445,0.3632030189,-0.6789854169,1.576328993
0.798,-0.8272829056,-7.922221661,8.021925926,0.377218008,-0.6627364159,1.581198454
0.8,-0.8699284196,-7.990561962,8.184981346,0.3895574808,-0.6488610506,1.587918043
0.802,-0.8757990003,-7.996997356,8.251233101,0.4018445909,-0.6353347301,1.596330523
0.804,-0.8716522455,-7.978964329,8.396866798,0.4112519324,-0.6222447753,1.607011914
0.806,-0.8378652334,-7.930055618,8.543077469,0.4173082113,-0.6099750996,1.619264126
0.808,-0.7803756595,-7.851056576,8.677907944,0.4216541052,-0.5989795327,1.631813049
0.81,-0.6636439562,-7.69368124,8.878006935,0.4243768156,-0.5897641778,1.646072388
0.812,-0.6189585924,-7.645614624,8.940437317,0.4251621962,-0.582224369,1.661361456
0.814,-0.5012021661,-7.544206142,9.061775208,0.4235914052,-0.5763251781,1.676406145
0.816,-0.377058059,-7.442845345,9.199346542,0.4201182127,-0.5723457932,1.691695333
0.818,-0.2583248019,-7.344798088,9.32699585,0.4152312875,-0.5688202381,1.707385778
0.82,-0.09358455986,-7.214065075,9.498669624,0.4088084698,-0.5661324263,1.724193335
0.822,0.008887276985,-7.125154018,9.597990036,0.4014780819,-0.5647187233,1.74206543
0.824,0.05556463078,-7.094689846,9.640406609,0.3931179643,-0.5628861189,1.760408878
0.826,0.1509208977,-7.034547806,9.717298508,0.3830823302,-0.5615073442,1.77765274
0.828,0.2502706945,-6.997763157,9.795196533,0.3736400902,-0.5606346726,1.79381454
0.83,0.349735409,-6.952924252,9.863881111,0.3659955561,-0.5586973429,1.810185671
0.832,0.4854866266,-6.859512329,9.969839096,0.358787328,-0.556009531,1.82568419
0.834,0.5247420073,-6.81780529,10.0011549,0.3517536521,-0.5520825386,1.839891195
0.836,0.6053595543,-6.742292404,10.06166077,0.3457322717,-0.5470036268,1.852928758
0.838,0.6888022423,-6.679861069,10.11500359,0.3398156166,-0.5408426523,1.864238501
0.84,0.7542405725,-6.644302368,10.17175579,0.3345621526,-0.5332679152,1.873890162
0.842,0.8083303571,-6.624670029,10.26838684,0.3317870796,-0.5248379707,1.882232904
0.844,0.8300505877,-6.634582043,10.30814934,0.3303384781,-0.5153957009,1.888795257
0.846,0.8331342936,-6.645729542,10.32676697,0.3297625184,-0.505237937,1.893978953
0.848,0.8311901689,-6.690557957,10.35823631,0.3298323154,-0.4951150119,1.89767909
0.85,0.8200907111,-6.789860249,10.3791132,0.329867214,-0.4843637645,1.899808288
0.852,0.8039537668,-6.876606941,10.38127708,0.3308271468,-0.4720941186,1.901623487
0.854,0.7929883599,-6.964081764,10.37215996,0.3327993751,-0.4579394758,1.903630614
0.856,0.7775601149,-7.043713093,10.34699345,0.3348588645,-0.4430343807,1.905393362
0.858,0.7680886388,-7.080267429,10.33468628,0.337284863,-0.4281292558,1.906737328
0.86,0.7549875379,-7.147573471,10.30292988,0.3414213061,-0.4116359055,1.906964183
0.862,0.7765928507,-7.252343178,10.25938416,0.346570015,-0.3942000568,1.905794859
0.864,0.8035515547,-7.302094936,10.25023842,0.3515093029,-0.3757344782,1.904695272
0.866,0.8146893978,-7.320750713,10.24845695,0.3570070863,-0.3568674624,1.90361321
0.868,0.8426727653,-7.359977245,10.23673534,0.3620685637,-0.3387509584,1.901274443
0.87,0.8857014179,-7.398782253,10.23820972,0.3672870994,-0.3203377426,1.898743629
0.872,0.9144030809,-7.442691803,10.26437378,0.3735179007,-0.3014881611,1.897399783
0.874,0.9547693729,-7.50039196,10.30225945,0.3795218468,-0.2821324766,1.895287991
0.876,0.9979894161,-7.542827129,10.32066631,0.3851243556,-0.2628814876,1.892844439
0.878,1.041085124,-7.574229717,10.33730125,0.3893131316,-0.2443286479,1.891849637
0.88,1.090846181,-7.602921486,10.3506031,0.3913202584,-0.2260375917,1.891116619
0.882,1.163840532,-7.60192585,10.33604717,0.3924547434,-0.2078512609,1.890505791
0.884,1.240301847,-7.619719028,10.35029697,0.3916518688,-0.1906772256,1.889947176
0.886,1.268486381,-7.623195648,10.37237072,0.387550354,-0.1757895648,1.889091969
0.888,1.307847023,-7.597290516,10.40278721,0.3814417124,-0.1627868563,1.889057159
0.89,1.34580946,-7.569125175,10.43661213,0.3742334843,-0.1518087387,1.89029634
0.892,1.378772855,-7.54143858,10.52470016,0.3649832606,-0.1416683793,1.891762376
0.894,1.423228383,-7.515647888,10.61487484,0.3536386192,-0.1302713752,1.892984152
0.896,1.473937631,-7.495000362,10.71279812,0.3414562047,-0.1205848008,1.8947469
0.898,1.54364717,-7.45889616,10.84101295,0.3285931349,-0.1150695607,1.897661567
0.9,1.620615959,-7.401090145,10.97795105,0.3148399293,-0.1118756011,1.901693344
0.902,1.762410164,-7.294759274,11.20484447,0.3007202148,-0.1111949235,1.906492949
0.904,1.807220101,-7.249010563,11.28531837,0.2867750525,-0.1121897623,1.911606789
0.906,1.905018449,-7.147793293,11.4349184,0.2738246918,-0.1138652787,1.917471051
0.908,1.983452559,-7.017702103,11.57033443,0.2606649101,-0.1167450696,1.923649549
0.91,2.065583229,-6.888127804,11.69777203,0.2464753985,-0.1213876456,1.929321885
0.912,2.134861708,-6.768848419,11.79862595,0.2321811467,-0.1286482215,1.93478477
0.914,2.2011621,-6.650872231,11.90491867,0.2184628546,-0.1360309571,1.94047451
0.916,2.272901773,-6.512295723,11.99716282,0.2056172341,-0.143134445,1.946583152
0.918,2.351824284,-6.382855415,12.07568264,0.1931381375,-0.1517040133,1.952866316
0.92,2.417856455,-6.262886524,12.12892056,0.1807986498,-0.1608669907,1.957945228
0.922,2.508366585,-6.064148903,12.20967197,0.1688257009,-0.1702917814,1.961278796
0.924,2.573010206,-5.992743969,12.22493744,0.1579522938,-0.1794896573,1.963896871
0.926,2.672187805,-5.849896431,12.22053242,0.1481609941,-0.1882861257,1.965589762
0.928,2.740843773,-5.717143059,12.2380867,0.1391376406,-0.197222203,1.966270447
0.93,2.805190325,-5.547183514,12.26938343,0.1304109991,-0.2055997849,1.965921402
0.932,2.811501503,-5.514852047,12.27123165,0.1221206859,-0.2134363204,1.964839339
0.934,2.807498217,-5.460637569,12.2645092,0.1143190637,-0.2207143307,1.962186456
0.936,2.789752483,-5.4375,12.2580452,0.1073551998,-0.2268404365,1.957002759
0.938,2.758599043,-5.435134888,12.23874664,0.101682879,-0.2309070528,1.950161099
0.94,2.72646904,-5.443859577,12.21287155,0.09716247767,-0.232879281,1.942952871
0.942,2.702402592,-5.440372944,12.18552971,0.0927991569,-0.2336821258,1.935290933
0.944,2.681400537,-5.437739849,12.15161705,0.08881980181,-0.2340137511,1.926476955
0.946,2.674447775,-5.436542511,12.119133,0.08531169593,-0.234153375,1.916266799
0.948,2.669688225,-5.435575008,12.09437656,0.08229227364,-0.2338915765,1.905794859
0.95,2.679983139,-5.451788425,12.08149624,0.08012806624,-0.2328269184,1.895863891
0.952,2.698466301,-5.449796677,12.05807114,0.0779813081,-0.229877308,1.8851825
0.954,2.716365576,-5.453809738,12.04597569,0.0761487186,-0.225531444,1.87483263
0.956,2.771001339,-5.459488869,12.0051403,0.07415904105,-0.2202780098,1.864954114
0.958,2.829256773,-5.46310854,11.94310188,0.07143632323,-0.213401407,1.853976011
0.96,2.87449789,-5.477292061,11.87660027,0.06845181435,-0.2046049535,1.843835592
0.962,2.908533573,-5.509508133,11.79722786,0.06595598906,-0.1944122314,1.835283518
0.964,2.947223902,-5.542720795,11.7229023,0.06274458766,-0.1845685691,1.825806379
0.966,2.986201763,-5.583431721,11.65297222,0.05733406544,-0.1751961559,1.815316916
0.968,2.999829292,-5.639264107,11.5961237,0.05164429173,-0.165387392,1.805054426
0.97,3.004637003,-5.704731464,11.56799698,0.04680972919,-0.1544441879,1.795507431
0.972,2.99431324,-5.765419483,11.56865788,0.04138175771,-0.1421047002,1.786571383
0.974,2.982801676,-5.818953991,11.59896851,0.03537782282,-0.1288751066,1.777879596
0.976,2.988404274,-5.866799831,11.66955948,0.02946115844,-0.1152789965,1.769920945
0.978,3.010584116,-5.906533718,11.75831699,0.02263692021,-0.1018574163,1.762276411
0.98,3.045357466,-5.925993919,11.87805557,0.01480039209,-0.0881914869,1.75410831
0.982,3.090741873,-5.928732872,12.00719929,0.006248278543,-0.07379251719,1.745730639
0.984,3.164732456,-5.915593624,12.14365959,-0.002268928103,-0.05876523629,1.737579942
0.986,3.244104862,-5.862614632,12.29131413,-0.01078613475,-0.04349360615,1.729848146
0.988,3.310529709,-5.780819416,12.43244839,-0.02024581842,-0.02750638872,1.722605109
0.99,3.394058704,-5.687330723,12.5632,-0.03042108938,-0.0105766952,1.715868115
0.992,3.474523067,-5.575904369,12.69059086,-0.04213224724,0.006091198884,1.709968925
0.994,3.546703339,-5.44453001,12.80804062,-0.05543165654,0.0226543732,1.704401255
0.996,3.613894224,-5.297400951,12.92531872,-0.06745697558,0.03981095925,1.698344946
0.998,3.670722961,-5.147954941,13.03265572,-0.07805112749,0.05689773336,1.692410827
1.0,3.737425566,-4.915228844,13.15865707,-0.08834856749,0.07300712168,1.686214924
1.002,3.731631517,-4.843431473,13.19420624,-0.09728465229,0.08873254061,1.679896832
1.004,3.704759121,-4.69373703,13.29051113,-0.1050164625,0.1045801267,1.673229694
1.006,3.835329056,-4.511633873,13.29528904,-0.1122770309,0.1205149814,1.666405439
1.008,3.847960949,-4.322051048,13.27922916,-0.1177399084,0.1355248094,1.659842968
1.01,3.838077545,-4.121695042,13.30316067,-0.1215621829,0.149208203,1.651814461
1.012,3.820954323,-3.930244923,13.29216671,-0.1262571216,0.1614080518,1.642861009
1.014,3.802557468,-3.751474619,13.23392105,-0.1303935498,0.17362535,1.633837581
1.016,3.750976562,-3.577301264,13.1766901,-0.131754905,0.1846034676,1.625756741
1.018,3.680529594,-3.433610916,13.10900116,-0.1332558841,0.1925447285,1.61804235
1.02,3.603924751,-3.301652193,13.0201292,-0.1360658705,0.1998751014,1.60860014
1.022,3.489893913,-3.126971245,12.89120483,-0.1381602585,0.2063328177,1.595597506
1.024,3.451327801,-3.074030399,12.84224892,-0.1390154809,0.2124240249,1.580832005
1.026,3.386387587,-2.987446547,12.73884773,-0.1390503794,0.2177647352,1.567253351
1.028,3.332422256,-2.913350821,12.6350069,-0.1387536824,0.2208714187,1.554145932
1.03,3.296930552,-2.839235783,12.53934383,-0.1386315078,0.2221455127,1.543447018
1.032,3.269962311,-2.775483131,12.44396877,-0.1379508227,0.2217091769,1.532468915
1.034,3.270201921,-2.743209124,12.36422253,-0.136397481,0.2205921561,1.519152045
1.036,3.286693096,-2.753648043,12.30688667,-0.1345125288,0.2182359695,1.505835176
1.038,3.364322662,-2.784035206,12.26778412,-0.1324879378,0.2147453129,1.494752288
1.04,3.395293951,-2.797940731,12.26396275,-0.1297652274,0.2111324817,1.484856367
1.042,3.46198678,-2.830683947,12.25634003,-0.1270774156,0.2071182281,1.471050739
1.044,3.549748898,-2.843650818,12.25448227,-0.1244070679,0.203592658,1.454697013
1.046,3.652661085,-2.872429132,12.26138687,-0.1217367128,0.2012190074,1.441415071
1.048,3.759873629,-2.901398897,12.27600098,-0.1197121367,0.1986708343,1.430018067
1.05,3.855162859,-2.930004835,12.2959013,-0.11730358,0.1957386732,1.417155027
1.052,3.95067215,-2.970993757,12.31845474,-0.1134813055,0.1932952106,1.400888562
1.054,4.054053783,-2.979459524,12.37430668,-0.1087689176,0.19228293,1.383522511
1.056,4.154035568,-2.97606945,12.45088291,-0.1043357849,0.1928239763,1.368250847
1.058,4.255559444,-2.967335224,12.53447914,-0.09936159104,0.1943075061,1.353520274
1.06,4.355828762,-2.944820404,12.61440754,-0.09482374042,0.1968033314,1.341512442
1.062,4.464515686,-2.920763254,12.6972847,-0.08981464058,0.200660497,1.328422427
1.064,4.556567669,-2.898171663,12.78619671,-0.08429940045,0.20696114,1.312679529
1.066,4.640499115,-2.851819754,12.88451195,-0.08047713339,0.2136457562,1.300601959
1.068,4.717659473,-2.787281752,12.97487831,-0.07766715437,0.2210808545,1.290304422
1.07,4.768799782,-2.709489346,13.06565666,-0.07492698729,0.2310641408,1.278855085
1.072,4.794111252,-2.594241858,13.15474033,-0.07161086053,0.2452187538,1.264735341
1.074,4.819058418,-2.46536684,13.24363136,-0.06805038452,0.2617295682,1.249516129
1.076,4.821644306,-2.294861555,13.31447124,-0.06503096968,0.2753780484,1.238258719
1.078,4.818091393,-2.096104383,13.37769794,-0.06253514439,0.2894628644,1.22832787
1.08,4.806177616,-1.877245784,13.41811275,-0.05962044746,0.3059213161,1.216703892
1.082,4.776030064,-1.653454781,13.43085861,-0.05560619012,0.3265161812,1.20218277
1.084,4.740538597,-1.417013049,13.44594193,-0.05112069473,0.3500432372,1.186492324
1.086,4.680501461,-1.172287345,13.45003128,-0.04771730304,0.3691022396,1.174414635
1.088,4.610696316,-0.9293237329,13.43560886,-0.04412192479,0.3888418972,1.161935449
1.09,4.516929626,-0.6872699857,13.41849518,-0.03918264061,0.4114090204,1.14643693
1.092,4.428200722,-0.4380910397,13.39270496,-0.03370230645,0.4316373765,1.131601691
1.094,4.347630978,-0.1914307922,13.35318089,-0.02926917188,0.450923264,1.117045641
1.096,4.253404617,0.06089891493,13.30611134,-0.02651155181,0.4679227769,1.103850961
1.098,4.13733387,0.3170689046,13.24250221,-0.02317797206,0.4839972556,1.091860533
1.1,4.017058372,0.5795596242,13.1554203,-0.01898918301,0.5015901923,1.078142285
1.102,3.903180838,0.8202438951,13.06530285,-0.01317723561,0.5210505724,1.061509252
1.104,3.796935797,1.045241475,12.96489906,-0.00701622339,0.5406506658,1.044003606
1.106,3.688497543,1.25671649,12.86370087,-0.0007330382941,0.5571614504,1.027091384
1.108,3.568701267,1.450484037,12.75063705,0.00591666624,0.5698674321,1.012325883
1.11,3.458385944,1.599384189,12.65496445,0.01146681327,0.5813691616,0.9981014132
1.112,3.319445848,1.707247853,12.57272816,0.01846558414,0.5942497253,0.9809448719
1.114,3.183828592,1.796235442,12.49213123,0.02951351739,0.6083344817,0.9597565532
1.116,3.047991276,1.846820235,12.41983509,0.04221951589,0.622890532,0.9372417927
1.118,2.921606064,1.866988897,12.35491371,0.05434955284,0.6360852718,0.9164025784
1.12,2.824162006,1.867515683,12.28853703,0.06527531147,0.6455624104,0.898460567
1.122,2.744521141,1.866615415,12.20352364,0.0782431066,0.6544635892,0.8778831363
1.124,2.690680504,1.853236556,12.11856842,0.09457939118,0.6650402546,0.8527853489
1.126,2.656472206,1.83346045,12.04002857,0.108158052,0.6731211543,0.8330979943
1.128,2.625998735,1.80668366,11.97572994,0.11969468,0.6789505482,0.8165697455
1.13,2.594357014,1.776507258,11.90960121,0.1325926632,0.6850941181,0.7981564999
1.132,2.575768232,1.761203527,11.85127926,0.1457349956,0.6907663941,0.7783470154
1.134,2.579436302,1.762534618,11.78846455,0.1589645892,0.695915103,0.755779922
1.136,2.606921673,1.790431857,11.74658585,0.1728923172,0.7008369565,0.7323750854
1.138,2.636504412,1.818147182,11.7098484,0.1861219108,0.7050606608,0.7111693025
1.14,2.677694321,1.846073151,11.68930626,0.1968731433,0.7089876533,0.6940301657
1.142,2.731966019,1.880482674,11.69369316,0.2066120803,0.7124782801,0.67788589
1.144,2.774391413,1.924516797,11.71622753,0.21879448,0.7157944441,0.6561740041
1.146,2.835970163,1.969527841,11.73772717,0.2303834558,0.7184123993,0.6353347301
1.148,2.894906044,2.023263216,11.75115299,0.2407681644,0.7204195261,0.618021071
1.15,2.956618786,2.10272193,11.77266312,0.250995785,0.7240847349,0.5992937088
1.152,3.0245471,2.204054117,11.80724525,0.2608394623,0.7293556333,0.579990387
1.154,3.088529825,2.314742804,11.84348297,0.272428453,0.7349755764,0.5576152205
1.156,3.157990217,2.440725803,11.87518215,0.2822022736,0.7397927046,0.5371425152
1.158,3.224357605,2.56742692,11.91365337,0.2899515331,0.7439466119,0.5205968022
1.16,3.281531334,2.707851887,11.95804119,0.298800379,0.7475419641,0.5024977326
1.162,3.339528322,2.840854406,12.01044559,0.3068114221,0.7515387535,0.4840845168
1.164,3.377720594,2.960736752,12.0460434,0.3141767085,0.7569493055,0.4627042413
1.166,3.409687996,3.074423075,12.08572006,0.3206518888,0.7610333562,0.4429471195
1.168,3.43052721,3.185293913,12.11945915,0.3251897395,0.7642796636,0.4270296991
1.17,3.45480442,3.300876141,12.13698483,0.3289247453,0.7668627501,0.4091749787
1.172,3.461077213,3.400944233,12.14854336,0.3323281407,0.769498229,0.3905523121
1.174,3.4716115,3.503665209,12.16896057,0.3359409869,0.7730935812,0.3722263575
1.176,3.48221302,3.622350693,12.1906147,0.3386636972,0.77675879,0.3534117043
1.178,3.46410346,3.714776278,12.22655582,0.3413514793,0.7814188004,0.3340734839
1.18,3.51323247,3.835348368,12.23615265,0.3446501791,0.7864627838,0.3148399293
1.182,3.535575151,3.973350048,12.23392105,0.3466398418,0.7923096418,0.2950130105
1.184,3.532357454,4.102119446,12.28211117,0.3480710089,0.7997447848,0.2708576322
1.186,3.546885252,4.229912758,12.32094574,0.3495894372,0.8065515757,0.2480636388
1.188,3.558434963,4.353740692,12.33678532,0.3514918685,0.8131139874,0.2302787453
1.19,3.56146121,4.465933323,12.35429096,0.3522598147,0.8208283186,0.2110452056
1.192,3.556720734,4.566556454,12.36606121,0.3497290611,0.8284030557,0.1905899495
1.194,3.564238548,4.663225174,12.3613596,0.3467969298,0.8362047076,0.1680577546
1.196,3.585106373,4.761205196,12.35883141,0.345610112,0.8431685567,0.1481435448
1.198,3.617073774,4.854732513,12.33720589,0.3444930911,0.8482125401,0.1318421662
1.2,3.651406527,4.908285618,12.3056221,0.3421543539,0.8531169295,0.1138478294
1.202,3.683077097,4.965287209,12.2762785,0.3396061659,0.8570089936,0.09578366578
1.204,3.707459688,5.005461693,12.24922466,0.3373197913,0.8617388606,0.0748571679
1.206,3.735491037,5.035169125,12.20578384,0.3351206779,0.867149353,0.05497787148
1.208,3.752049208,5.06563282,12.17730236,0.3323281407,0.872490108,0.03645992652
1.21,3.768856525,5.060087681,12.15543842,0.3296228945,0.8781449795,0.01883210242
1.212,3.790270329,5.064129353,12.1400671,0.3282091618,0.8826653361,0.004084070213
1.214,3.813819647,5.068428993,12.10620403,0.3257308006,0.8879711628,-0.01391027402
1.216,3.832877398,5.057339191,12.07530975,0.3225193918,0.8935911059,-0.03227113932
1.218,3.859041214,5.051487923,12.05172157,0.3202504516,0.897779882,-0.04607669264
1.22,3.870868683,5.041958809,12.03320026,0.31744048,0.9010611176,-0.05768313259
1.222,3.874306917,5.03328228,11.99767971,0.3128328025,0.9036616683,-0.06998769939
1.224,3.867325306,5.028187275,11.95135689,0.3065321743,0.9062970877,-0.08477064222
1.226,3.845988035,5.06071949,11.90159607,0.299236685,0.9089500308,-0.1008974835
1.228,3.816424608,5.10249424,11.85002422,0.2934247553,0.9100320935,-0.1134463996
1.23,3.769843102,5.141586304,11.79174042,0.2878920734,0.909840107,-0.1239358261
1.232,3.731229305,5.178524494,11.72939587,0.2821848392,0.9091245532,-0.1354549974
1.234,3.680577755,5.220135212,11.66286564,0.2766870558,0.9085311294,-0.1480388194
1.236,3.626401663,5.275997162,11.60129547,0.2713114321,0.9089151025,-0.162315622
1.238,3.585106373,5.339558125,11.5364809,0.2665815949,0.9090722203,-0.1769589335
1.24,3.54862833,5.381265163,11.49479198,0.2618342936,0.9091245532,-0.1901885271
1.242,3.487116337,5.416536808,11.46373463,0.2579945624,0.909473598,-0.203138873
1.244,3.419226646,5.449595928,11.43409443,0.255795449,0.908356607,-0.2175727487
1.246,3.345753193,5.481495857,11.40652275,0.254591167,0.9063145518,-0.2326000333
1.248,3.283781767,5.521411896,11.38140202,0.2525316775,0.9051626325,-0.2469291836
1.25,3.217567682,5.557842255,11.3597784,0.2507340014,0.9053372145,-0.2622182667
1.252,3.164378166,5.605381966,11.34310532,0.2503151298,0.9044645429,-0.278868705
1.254,3.123523474,5.661903858,11.32034111,0.2501580417,0.902213037,-0.2957460284
1.256,3.094256639,5.714203358,11.30246067,0.250402391,0.9003455639,-0.3133389652
1.258,3.059569597,5.773186684,11.28763676,0.2511354387,0.8980067968,-0.3315601945
1.26,3.035320997,5.829009533,11.28106594,0.2514321208,0.8951619267,-0.3496941626
1.262,3.027085066,5.905633926,11.2795248,0.252496779,0.8917934299,-0.3722438216
1.264,3.040167093,5.968333244,11.29906178,0.2554638386,0.8885296583,-0.3971845806
1.266,3.057491541,6.021733284,11.32687187,0.2582389116,0.8868890405,-0.4168195426
1.268,3.090895176,6.062319756,11.34208012,0.2619041204,0.8858942389,-0.4339586496
1.27,3.114013672,6.104697227,11.37586689,0.267174989,0.8854928017,-0.4523020685
1.272,3.163794041,6.141539097,11.42235374,0.2702816725,0.8856498599,-0.4705058634
1.274,3.215508461,6.163460255,11.4651804,0.2709099948,0.8847597837,-0.4883256555
1.276,3.280611753,6.201758385,11.50286484,0.2705260217,0.8806233406,-0.505674243
1.278,3.34875083,6.249670982,11.52879047,0.2687981427,0.872926414,-0.5222199559
1.28,3.415529728,6.277127266,11.5389595,0.2655692995,0.8641124964,-0.5384166241
1.282,3.483917713,6.301203728,11.53009319,0.2611012459,0.8551764488,-0.5544736385
1.284,3.55656743,6.334339142,11.53691101,0.2567553818,0.8471130133,-0.5707924962
1.286,3.617839813,6.372886181,11.55487728,0.2521477044,0.8403585553,-0.5869193077
1.288,3.702087164,6.404460907,11.56068039,0.2474178672,0.8338136077,-0.6029414535
1.29,3.777609825,6.429255486,11.56698227,0.2436130494,0.8276875019,-0.6186144948
1.292,3.850393534,6.443907738,11.56892586,0.241117239,0.8210901618,-0.633833766
1.294,3.913552523,6.441187859,11.56771946,0.2382025421,0.8123984337,-0.6517059207
1.296,3.976204157,6.433852196,11.55990505,0.2341708243,0.8031830788,-0.6706601977
1.298,4.025122166,6.430682182,11.57540989,0.2309594154,0.79564327,-0.6853209734
1.3,4.069376945,6.434435844,11.57743073,0.2280621678,0.7887840867,-0.6969797611
1.302,4.111390114,6.443582058,11.56317043,0.2240479141,0.7806333899,-0.7099301219
1.304,4.120220184,6.445296288,11.55249214,0.2192657143,0.7713133693,-0.7234040499
1.306,4.101248741,6.441187859,11.51734543,0.2147802114,0.7618362308,-0.7358307838
1.308,4.087630272,6.440373898,11.46584225,0.2107485086,0.7529350519,-0.747838676
1.31,4.071205616,6.449203491,11.42982292,0.2062630057,0.7445749044,-0.7603003383
1.312,4.055653095,6.462678432,11.39023209,0.2016029805,0.7361100912,-0.7726223469
1.314,4.035331249,6.46524477,11.35002899,0.1981297731,0.7269994617,-0.7845953107
1.316,4.00101757,6.474802017,11.32508183,0.1954594254,0.7166496515,-0.7970395088
1.318,3.962212086,6.491226673,11.29935837,0.193103224,0.7058111429,-0.8093615174
1.32,3.925983191,6.509872437,11.28113365,0.1915149838,0.6960372925,-0.8216486573
1.322,3.895950556,6.516222,11.2674675,0.1902234405,0.6873281002,-0.8339008689
1.324,3.848679304,6.52880621,11.24527836,0.1890889704,0.6777811646,-0.8458389044
1.326,3.79776907,6.546618938,11.21526432,0.1883035749,0.6679025888,-0.8579515219
1.328,3.735107899,6.551550865,11.17922688,0.1870294809,0.6588268876,-0.8701338768
1.33,3.683900595,6.532493114,11.15499687,0.1849350929,0.650082767,-0.8817403316
1.332,3.613884687,6.540499687,11.12652493,0.1837657094,0.6414783001,-0.8927708268
1.334,3.547124863,6.537703037,11.10365582,0.1842369586,0.633222878,-0.9045168757
1.336,3.488198757,6.555707455,11.08209896,0.1853714138,0.6248278618,-0.9175021052
1.338,3.428755283,6.571308136,11.04854202,0.1861568242,0.6163630486,-0.9300510287
1.34,3.366103888,6.589226246,11.01357746,0.1861568242,0.6088057756,-0.9424254298
1.342,3.299114227,6.61457634,10.97454166,0.1864709705,0.6019465923,-0.9559692144
1.344,3.226914644,6.633652687,10.93735504,0.1878672391,0.5947383642,-0.9693907499
1.346,3.165785789,6.66488266,10.9068718,0.1909564734,0.5870589614,-0.9827250838
1.348,3.107290745,6.71827364,10.88254642,0.1947438419,0.579519093,-0.9970018864
1.35,3.0350914,6.760306358,10.86759758,0.1975363642,0.5726599693,-1.011959314
1.352,2.992723465,6.812002182,10.85601997,0.2005732358,0.5663942695,-1.027213573
1.354,2.959003448,6.855490208,10.86055851,0.2034006715,0.560058713,-1.042258263
1.356,2.919164181,6.894573212,10.84540844,0.206437543,0.5533741117,-1.057844043
1.358,2.888039351,6.930323124,10.8243866,0.2105041593,0.5465498567,-1.073970914
1.36,2.850402594,6.950530052,10.80064678,0.2140646279,0.5399874449,-1.089696288
1.362,2.826383829,6.972786427,10.76757717,0.2173982114,0.5338438749,-1.10524714
1.364,2.791897774,7.012176037,10.72700024,0.2203478217,0.5278748274,-1.120728254
1.366,2.772083282,7.059562683,10.6707077,0.2224771231,0.522289753,-1.135563612
1.368,2.750181198,7.085391045,10.62132072,0.2243097126,0.5171759725,-1.150119662
1.37,2.730510473,7.113230705,10.55800819,0.2262993902,0.5122541189,-1.16519928
1.372,2.704863787,7.151547432,10.50174427,0.2280621678,0.5080304146,-1.178917527
1.374,2.682683945,7.196903229,10.44862175,0.2297376841,0.5047317743,-1.191431522
1.376,2.673547506,7.232710838,10.39444637,0.2313608378,0.5027595162,-1.204434276
1.378,2.656108141,7.270261765,10.3501339,0.2326523811,0.5007000566,-1.216651559
1.38,2.646550655,7.29794836,10.30550575,0.233175993,0.4982914925,-1.227943897
1.382,2.634570122,7.329408169,10.28662968,0.2324429452,0.4963541925,-1.2394979
1.384,2.628450394,7.346981525,10.2600832,0.2305754423,0.4943121374,-1.251139283
1.386,2.627961874,7.379743576,10.21957302,0.2294933498,0.4941027164,-1.262187243
1.388,2.627061844,7.414823532,10.1760273,0.2296853215,0.4949579239,-1.272676587
1.39,2.630231619,7.439091206,10.13189793,0.2300692946,0.4946786761,-1.283584952
1.392,2.625347376,7.462573051,10.08575726,0.2315004766,0.4942597747,-1.294650316
1.394,2.618739605,7.493535042,10.03234673,0.2330189049,0.4931427836,-1.304825544
1.396,2.620702744,7.507948399,9.973086357,0.2355321795,0.4914149046,-1.314983368
1.398,2.602257729,7.519287109,9.912378311,0.2400351316,0.4904026091,-1.324792147
1.4,2.574427843,7.527303219,9.85706234,0.244712621,0.4893554151,-1.333832979
1.402,2.558463097,7.525387764,9.810328484,0.249128297,0.4879766107,-1.342559576
1.404,2.524369717,7.509068966,9.775746346,0.2540850341,0.4871039391,-1.35053575
1.406,2.48083353,7.497308731,9.746230125,0.2592686713,0.4858123958,-1.357569456
1.408,2.434998751,7.480683327,9.717720032,0.2648362517,0.4833863974,-1.364847422
1.41,2.393981457,7.471642494,9.704973221,0.2712241709,0.4805065989,-1.373172641
1.412,2.347045422,7.463042736,9.680887222,0.2775946259,0.4783772826,-1.381620049
1.414,2.293922901,7.457277298,9.671731949,0.2839825153,0.4765796065,-1.388845801
1.416,2.239402056,7.457344532,9.670372009,0.2913129032,0.4730016887,-1.395879388
1.418,2.199486017,7.465503693,9.659425735,0.2990446985,0.4686907232,-1.404117346
1.42,2.159062147,7.463052273,9.628501892,0.3069161475,0.4650604427,-1.411884069
1.422,2.124202967,7.459595203,9.604493141,0.3148573935,0.460732013,-1.418847919
1.424,2.064596653,7.471058369,9.570773125,0.3221877813,0.4554960132,-1.426091075
1.426,2.002385855,7.467965126,9.530062675,0.3295879662,0.4502076805,-1.433142185
1.428,1.945173979,7.469737053,9.488278389,0.3376688361,0.4452160299,-1.439809322
1.43,1.880070806,7.460198402,9.447816849,0.3463082314,0.4390899241,-1.446301937
1.432,1.811529636,7.455879211,9.40852356,0.3548777997,0.4318468273,-1.453056455
1.434,1.753752708,7.458225727,9.367438316,0.3637266159,0.42575562,-1.459898114
1.436,1.701779366,7.481889725,9.328634262,0.373029232,0.4198040366,-1.46647799
1.438,1.652794123,7.504414558,9.297921181,0.3818431199,0.4132765234,-1.472935677
1.44,1.611987352,7.523912907,9.28099823,0.3908141255,0.406504631,-1.479044318
1.442,1.581887364,7.547107697,9.262773514,0.3998200297,0.3993313313,-1.484681726
1.444,1.557830453,7.564154625,9.2332201,0.406958431,0.3926292658,-1.490458846
1.446,1.535018444,7.582015514,9.219305038,0.4136604965,0.3858050406,-1.496270776
1.448,1.530938745,7.605344772,9.197986603,0.4201705754,0.3789109886,-1.501803398
1.45,1.540036798,7.6191926,9.170185089,0.4256683588,0.3726452589,-1.50688231
1.452,1.534137487,7.60997963,9.138964653,0.4310614169,0.3669380248,-1.510861754
1.454,1.520844817,7.605353832,9.120624542,0.4357738197,0.3624001741,-1.513724089
1.456,1.502016902,7.601686001,9.102276802,0.4395960867,0.3580193818,-1.515853405
1.458,1.482480049,7.583270073,9.095170021,0.443662703,0.353097558,-1.517651081
1.46,1.472989559,7.556904793,9.070701599,0.4478514791,0.3482455313,-1.518715739
1.462,1.467712641,7.531172276,9.051050186,0.4505043924,0.3449992239,-1.518192053
1.464,1.460539699,7.503255844,9.029540062,0.4522148073,0.3440043926,-1.516394377
1.466,1.467913866,7.4697752,9.011507034,0.453541249,0.3439171314,-1.513776422
1.468,1.473343849,7.422839165,8.997045517,0.4537681639,0.3432364464,-1.510181069
1.47,1.480804205,7.387615681,8.978898048,0.453541249,0.34201473,-1.505887508
1.472,1.499967456,7.326764584,8.955041885,0.4525115192,0.3408977091,-1.501297355
1.474,1.518115401,7.27291441,8.950321198,0.4505043924,0.3401122987,-1.496584892
1.476,1.519781709,7.22343111,8.937966347,0.4481132925,0.3394840062,-1.491820216
1.478,1.520710707,7.157590389,8.933178902,0.4455651045,0.3373372257,-1.487038016
1.48,1.511315942,7.089653015,8.932431221,0.4429471195,0.3342480063,-1.481941581
1.482,1.49487257,7.031071186,8.944631577,0.4390375614,0.330478102,-1.476391435
1.484,1.458672166,6.968544483,8.978630066,0.4346044362,0.3248232305,-1.470666766
1.486,1.403318286,6.922259808,8.968871117,0.4315326512,0.3177895546,-1.464854836
1.488,1.324242592,6.874796867,8.8986063,0.4299793243,0.3092548847,-1.459967971
1.49,1.240895629,6.818063736,8.848940849,0.4283910692,0.2994635999,-1.455464959
1.492,1.156064153,6.755824089,8.821781158,0.4264886677,0.2891661525,-1.450787425
1.494,1.069595218,6.699828625,8.775734901,0.4263315797,0.2777167857,-1.446668506
1.496,0.9849267006,6.663800716,8.724518776,0.427850008,0.2651678622,-1.443090558
1.498,0.9201587439,6.641496658,8.685024261,0.4300491214,0.2518510222,-1.439756989
1.5,0.8618839383,6.599655151,8.637083054,0.433469981,0.237591669,-1.436807394
1.502,0.8079186082,6.557163239,8.594532967,0.4380252659,0.2229483575,-1.434032321
1.504,0.7683472037,6.518520355,8.563532829,0.4427202046,0.2072054893,-1.431641221
1.506,0.7285268307,6.467112541,8.535645485,0.4471533597,0.1913229972,-1.430035472
1.508,0.6875380874,6.420454025,8.499052048,0.4514817595,0.1757022887,-1.428761482
1.51,0.6481103897,6.363615513,8.477858543,0.4541870356,0.160517931,-1.428552032
1.512,0.5911858678,6.299796104,8.450813293,0.4552865922,0.1464331299,-1.429093003
1.514,0.5373737812,6.230660915,8.411500931,0.4538554251,0.1318596303,-1.430576563
1.516,0.488062799,6.151125431,8.365255356,0.4422140718,0.1088910922,-1.434346437
1.518,0.4215518832,6.083340645,8.333526611,0.4096985757,0.09323548526,-1.439652324
1.52,0.3732177317,6.032411575,8.289904594,0.3648959994,0.1174606606,-1.442776442
1.522,0.3311755657,5.982449055,8.258808136,0.3270921409,0.178791523,-1.43930316
1.524,0.3025600612,5.94999361,8.238237381,0.3000220954,0.2532996237,-1.428743958
1.526,0.2908476293,5.921243668,8.22826767,0.2858500183,0.3133040667,-1.413385034
1.528,0.2948219776,5.890492439,8.228660583,0.2876651585,0.3380353749,-1.396717191
1.53,0.2920542955,5.848546505,8.234540939,0.2972295582,0.3266558349,-1.382370591
1.532,0.3021769822,5.790261745,8.236035347,0.3061830997,0.2898119092,-1.37305057
1.534,0.3011905849,5.730052948,8.235488892,0.317073971,0.2442064732,-1.370205641
1.536,0.2922075093,5.668569565,8.235977173,0.33257249,0.2035402954,-1.373155236
1.538,0.3045807481,5.606914043,8.234904289,0.3518060148,0.1721592695,-1.380660176
1.54,0.3226904869,5.54997015,8.238083839,0.3744778335,0.1461189687,-1.390974998
1.542,0.3321140707,5.478699684,8.233477592,0.4023332894,0.1109156758,-1.404326797
1.544,0.3366343379,5.425682545,8.220578194,0.4272391498,0.07290240377,-1.417032838
1.546,0.3366917968,5.381293774,8.209239006,0.4452683926,0.03817034885,-1.426300526
1.548,0.3443436623,5.332136154,8.20083046,0.4623900652,-0.0005585053586,-1.434800267
1.55,0.3568413854,5.274359226,8.200418472,0.4775744379,-0.03686135262,-1.441746712
1.552,0.3660160005,5.224895,8.201041222,0.4887969196,-0.0674046129,-1.446773171
1.554,0.3760333359,5.201288223,8.209134102,0.4949404597,-0.09309586138,-1.450089335
1.556,0.3960392773,5.162971497,8.222962379,0.495865494,-0.1152440906,-1.450490832
1.558,0.4316170812,5.114215851,8.226965904,0.4921479523,-0.1343554407,-1.448117137
1.56,0.4880915284,5.03676796,8.25398159,0.4843114018,-0.1522276103,-1.443998098
1.562,0.5058086514,5.007118702,8.262648582,0.4732285738,-0.1680403054,-1.438535213
1.564,0.5537500978,4.956189156,8.27369976,0.4608367383,-0.1798387319,-1.431588888
1.566,0.5686612129,4.914894104,8.296521187,0.4479038417,-0.1899965405,-1.423071623
1.568,0.5763418078,4.901534081,8.304690361,0.43474406,-0.2004510611,-1.414554477
1.57,0.6117376685,4.850279331,8.315493584,0.4218111634,-0.2119702399,-1.407293916
1.572,0.6264859438,4.834669113,8.315052986,0.4099080265,-0.2248507738,-1.400871038
1.574,0.6436571479,4.819547176,8.301597595,0.4000294507,-0.2383072525,-1.394465685
1.576,0.6517591476,4.791400909,8.284282684,0.3915820718,-0.25167647,-1.389020324
1.578,0.6628969908,4.755871296,8.264056206,0.3843564093,-0.2640683055,-1.384604573
1.58,0.6709893942,4.675339699,8.225107193,0.3785793781,-0.2763728797,-1.379961967
1.582,0.6676183343,4.654002666,8.209765434,0.3733782768,-0.2898992002,-1.37523222
1.584,0.6643526554,4.602967739,8.188016891,0.3687357008,-0.3045599461,-1.370781541
1.586,0.6884670258,4.542519093,8.175997734,0.3655941188,-0.3203028142,-1.365807414
1.588,0.7066438794,4.482434273,8.152161598,0.3627317846,-0.3355570138,-1.359995484
1.59,0.6993654966,4.392939091,8.132126808,0.358717531,-0.3496592641,-1.353520274
1.592,0.7050732374,4.331149578,8.107666969,0.3539353311,-0.3642327487,-1.347114921
1.594,0.7203099132,4.273899078,8.08488369,0.3494672775,-0.3790156841,-1.340395451
1.596,0.7216794491,4.243378162,8.079521179,0.3460638821,-0.3935368359,-1.332611203
1.598,0.727253139,4.185007095,8.064178467,0.3424685001,-0.4079881608,-1.324390769
1.6,0.7336504459,4.113276958,8.017788887,0.3378433883,-0.4230154455,-1.315681577
1.602,0.7489541769,4.063994408,8.009274483,0.3343876302,-0.4389154017,-1.306762934
1.604,0.7597280741,4.008162022,7.999238968,0.3320314288,-0.4548677206,-1.29808867
1.606,0.7665755153,3.975389957,7.995015144,0.3298148811,-0.4711341858,-1.289501548
1.608,0.7655987144,3.906532764,7.999123573,0.3285931349,-0.4875402749,-1.281281114
1.61,0.7424515486,3.773845911,7.996796608,0.3284186125,-0.5046445131,-1.27351439
1.612,0.7292355299,3.723357201,7.993866444,0.3299195766,-0.5216963887,-1.266236424
1.614,0.7033590078,3.626047134,7.980046749,0.3333753347,-0.5384340882,-1.260127664
1.616,0.6897599697,3.535144091,7.961295605,0.3382447958,-0.5569171309,-1.255432725
1.618,0.6762853265,3.438839912,7.935093403,0.3427652121,-0.5751732588,-1.250353813
1.62,0.6616137028,3.314398766,7.871100903,0.3477568626,-0.5920680165,-1.245135307
1.622,0.6575435996,3.277623892,7.845722198,0.3538829684,-0.6090500951,-1.241435289
1.624,0.6552547216,3.229174852,7.794189453,0.3592236638,-0.6260670424,-1.238031864
1.626,0.654411912,3.136356354,7.724834442,0.3648785353,-0.6427698731,-1.234436512
1.628,0.6504949927,3.068341732,7.673090935,0.3706381321,-0.659367919,-1.231713772
1.63,0.6407074928,2.997042418,7.623387337,0.3767816722,-0.6755820513,-1.229654312
1.632,0.6157791018,2.935818195,7.594388485,0.3840073347,-0.6903998852,-1.227245688
1.634,0.6079548597,2.90489459,7.579324245,0.3901160061,-0.7033677101,-1.224051714
1.636,0.5964148045,2.833681345,7.540327549,0.3951250911,-0.7143283486,-1.220543623
1.638,0.5794351101,2.776680231,7.491993427,0.3996804059,-0.724468708,-1.217227578
1.64,0.5489138365,2.712419987,7.439320564,0.4028045237,-0.7352199554,-1.213335395
1.642,0.5257092118,2.659325838,7.381074905,0.4043927789,-0.7471754551,-1.208605647
1.644,0.4957625568,2.620654821,7.323748112,0.404410243,-0.7599338293,-1.2032125
1.646,0.4671087563,2.585977316,7.270031929,0.4031535983,-0.7714529634,-1.196597695
1.648,0.4493437707,2.551318884,7.229578972,0.4007450342,-0.7818027735,-1.188220143
1.65,0.4399010241,2.511450529,7.169350624,0.3962944448,-0.7926587462,-1.179441094
1.652,0.428868562,2.472042084,7.104726791,0.3894353211,-0.8043349981,-1.170505047
1.654,0.406401366,2.418938398,7.055865765,0.3800105453,-0.8179311156,-1.160242558
1.656,0.3844417334,2.356430769,7.015738964,0.3682819307,-0.8341801167,-1.149753094
1.658,0.3739838898,2.291193485,6.966782093,0.3559249938,-0.8518602848,-1.139473081
1.66,0.3666863441,2.233828545,6.928427219,0.3423812389,-0.8700990081,-1.128983617
1.662,0.3682377934,2.194094181,6.885541916,0.3267605305,-0.8885645866,-1.118721128
1.664,0.3512198329,2.160278559,6.839755535,0.3106336892,-0.9061924219,-1.108860016
1.666,0.3434817493,2.119385719,6.791938305,0.2936342061,-0.9237678647,-1.09852767
1.668,0.3322577178,2.069001913,6.746754646,0.2756747603,-0.9423032403,-1.087706685
1.67,0.3055001199,2.011196375,6.691879749,0.2566855848,-0.9605594277,-1.07634449
1.672,0.2860113084,1.957566381,6.639676571,0.2366491854,-0.9774716496,-1.063830495
1.674,0.2740690708,1.900517344,6.597634792,0.2164906412,-0.993825376,-1.049902797
1.676,0.250280261,1.827618599,6.558197498,0.1962971836,-1.010266423,-1.035399079
1.678,0.1995998025,1.731189847,6.459335804,0.1767145842,-1.027056456,-1.020336986
1.68,0.161618188,1.652956963,6.389971256,0.1586504281,-1.045574427,-1.004419565
1.682,0.1270650774,1.584846616,6.32144928,0.1430820972,-1.065104604,-0.9894096851
1.684,0.100518167,1.524809599,6.239318371,0.1288576573,-1.085682034,-0.9741555452
1.686,0.07807970792,1.494431973,6.196988583,0.117373392,-1.10351932,-0.9606815577
1.688,0.03382528201,1.424281836,6.118947029,0.1104967967,-1.117097974,-0.9498431087
1.69,-0.01100375038,1.353231549,6.051546097,0.1061160192,-1.12924552,-0.9391093254
1.692,-0.06034345925,1.273849368,5.97598505,0.1043357849,-1.139891982,-0.9296845198
1.694,-0.1054214835,1.193145633,5.907817364,0.1048768312,-1.151149392,-0.9217607379
1.696,-0.1561402529,1.105575323,5.839802742,0.1079311594,-1.164256811,-0.9140987396
1.698,-0.1957116276,1.002931118,5.772784233,0.1139176413,-1.178114653,-0.9068905115
1.7,-0.2499355078,0.911961019,5.712248802,0.1214051023,-1.190070152,-0.900485158
1.702,-0.3071952164,0.8224274516,5.652154922,0.1295034289,-1.198412895,-0.8940798044
1.704,-0.3681803346,0.7357190847,5.585672379,0.1391027421,-1.205917835,-0.8870635629
1.706,-0.4273841679,0.650667429,5.524448395,0.1493303776,-1.213701963,-0.8797855377
1.708,-0.4938663542,0.568785727,5.472082138,0.1598023474,-1.221608281,-0.8730311394
1.71,-0.5535202622,0.4990091026,5.412015915,0.1719672978,-1.229863763,-0.8665035963
1.712,-0.6174359322,0.4372099638,5.348349571,0.1838529855,-1.237647891,-0.8603600264
1.714,-0.6786221266,0.3864337504,5.285047054,0.1956339478,-1.245554209,-0.8543910384
1.716,-0.7365331054,0.3490554392,5.237584591,0.208008334,-1.253198743,-0.848805964
1.718,-0.7867920995,0.3210241497,5.172260761,0.2196671367,-1.259778619,-0.8433780074
1.72,-0.8391006589,0.2990932763,5.085380554,0.2307325304,-1.265293837,-0.8376882076
1.722,-0.8931138515,0.2725367844,4.96901226,0.2412394136,-1.271018624,-0.8319112062
1.724,-0.8918305635,0.2707937956,4.888758659,0.2518160939,-1.277127266,-0.8257676363
1.726,-0.8831827044,0.2684857845,4.843613625,0.2627593279,-1.28341043,-0.8191702962
1.728,-0.8454309106,0.2857432067,4.732848167,0.2732138336,-1.289745927,-0.8111068606
1.73,-0.7447116971,0.3415376544,4.589215279,0.2818881273,-1.29454565,-0.8015249968
1.732,-0.3758417964,0.5487414598,4.28216362,0.2888869047,-1.298071146,-0.7909832001
1.734,0.3231693506,1.052701831,3.545276403,0.2952049971,-1.301404715,-0.7794466019
1.736,0.6119101048,1.243615389,3.210021257,0.3003013432,-1.305279374,-0.7665311694
1.738,0.6007052064,1.062584996,3.202848196,0.3026924431,-1.310009241,-0.753074646
1.74,0.3549834788,0.7706073523,3.292946815,0.3020990491,-1.315419793,-0.7397054434
1.742,-0.1753226072,0.5371534824,3.891487598,0.300894767,-1.320446253,-0.7254286408
1.744,-0.3713885844,0.4846630394,4.208001137,0.2991494238,-1.325350642,-0.7113962173
1.746,-0.7213059068,0.4149343073,4.724755764,0.2955889702,-1.331127763,-0.6987600327
1.748,-0.9167302251,0.3716375828,4.997541428,0.2916270494,-1.335682988,-0.6863507032
1.75,-0.9837296009,0.3425719738,5.238350391,0.2874906361,-1.339435458,-0.6740286946
1.752,-0.9708679318,0.2830329537,5.448819637,0.2813819945,-1.343798757,-0.662073195
1.754,-0.93552953,0.1355788559,5.57348156,0.274156332,-1.348423958,-0.6502747536
1.756,-0.896456182,-0.07409575582,5.649578571,0.2674368024,-1.353450418,-0.6381970644
1.758,-0.8549023867,-0.3213210106,5.723999977,0.260280937,-1.35804069,-0.6263462901
1.76,-0.7645547986,-0.6583480239,5.695642948,0.25167647,-1.361164808,-0.6158394217
1.762,-0.7255388498,-0.7490978241,5.64278841,0.2421818823,-1.364009738,-0.6061877608
1.764,-0.6541246176,-0.904050529,5.488276482,0.2326349318,-1.367692351,-0.5962742567
1.766,-0.6052924991,-0.997769177,5.258509636,0.2230705321,-1.37172401,-0.5859245062
1.768,-0.569887042,-1.035444379,4.990071774,0.2138028294,-1.375249624,-0.5760284662
1.77,-0.5695997477,-1.047769666,4.710946083,0.2043606043,-1.378583193,-0.5663070083
1.772,-0.6068151593,-1.043757081,4.47127676,0.1948311031,-1.382771969,-0.5563585758
1.774,-0.6557143331,-1.027447701,4.260845661,0.1865407825,-1.38764143,-0.5466371179
1.776,-0.7186340094,-1.016970754,4.098863602,0.1793674827,-1.392144442,-0.5369854569
1.778,-0.7685291767,-1.018838167,3.97709465,0.1736079007,-1.396193624,-0.527700305
1.78,-0.7917050123,-1.023827672,3.896180153,0.1700125188,-1.401307344,-0.5188689232
1.782,-0.8178018332,-1.041410685,3.849809408,0.1672723591,-1.407189131,-0.510543704
1.784,-0.8379705548,-1.057777524,3.83545351,0.1645845473,-1.412407637,-0.5033529401
1.786,-0.855093956,-1.072947145,3.850767136,0.1634849906,-1.418010235,-0.4966509044
1.788,-0.854088366,-1.098316073,3.850029469,0.1652477682,-1.425654769,-0.4888667166
1.79,-0.839684844,-1.125839829,3.848592997,0.1688082516,-1.432566285,-0.4806462228
1.792,-0.8214601874,-1.153239012,3.847865343,0.1740442365,-1.437889457,-0.4725653529
1.794,-0.8094891906,-1.190224767,3.858112335,0.181863308,-1.44417274,-0.4642226696
1.796,-0.8036186099,-1.22398293,3.876461744,0.1907295734,-1.449879885,-0.4561069012
1.798,-0.7879988551,-1.257674217,3.887580395,0.199700579,-1.453789473,-0.4480609298
1.8,-0.7786327004,-1.283905029,3.879976273,0.2090380788,-1.456320167,-0.4394215345
1.802,-0.7873667479,-1.297504187,3.881048918,0.2194577008,-1.458292365,-0.4308519661
1.804,-0.7853555679,-1.312185287,3.877706528,0.2312735766,-1.460369349,-0.4229456484
1.806,-0.7889181972,-1.307061791,3.866137743,0.2424087822,-1.462463737,-0.4153010845
1.808,-0.8022108078,-1.290991783,3.849110126,0.2523047924,-1.464907169,-0.4074645638
1.81,-0.8252526522,-1.259819388,3.835108995,0.2623229921,-1.466844559,-0.3989124596
1.812,-0.8565304279,-1.236356258,3.824631929,0.2708227336,-1.467944026,-0.389732033
1.814,-0.8809800148,-1.223935008,3.800986767,0.2774375379,-1.469026208,-0.3803246915
1.816,-0.8902216554,-1.213850737,3.79203248,0.2829702199,-1.46977663,-0.3717551231
1.818,-0.9001815319,-1.217231274,3.789073229,0.2871241271,-1.470090866,-0.3619638383
1.82,-0.8988886476,-1.224892735,3.8099792,0.290702045,-1.470841289,-0.3485073447
1.822,-0.8743816018,-1.242418289,3.840079308,0.2940530777,-1.471783757,-0.3307224512
1.824,-0.8517994881,-1.267184019,3.868570328,0.2969852388,-1.472796082,-0.3108431399
1.826,-0.8122281432,-1.281922579,3.900135517,0.2994461358,-1.474785805,-0.2923426628
1.828,-0.7712298632,-1.326330304,3.943594933,0.3007725775,-1.476548553,-0.2775596976
1.83,-0.7023534775,-1.383599639,4.001084328,0.300667882,-1.478206635,-0.2642777562
1.832,-0.622320056,-1.434892893,4.048652649,0.3000046313,-1.482046366,-0.2452885658
1.834,-0.5485499501,-1.503539562,4.104715347,0.2981545925,-1.487387061,-0.2239955515
1.836,-0.4764940143,-1.573996067,4.150454044,0.2951875329,-1.493041873,-0.205233261
1.838,-0.3979929388,-1.643763065,4.197504997,0.2924124599,-1.498173118,-0.1900139898
1.84,-0.2998210788,-1.752727985,4.254094124,0.2900038958,-1.503426671,-0.1765575111
1.842,-0.2682559192,-1.787625909,4.273439407,0.2871415615,-1.510617375,-0.1584584415
1.844,-0.1886535138,-1.859767914,4.311832428,0.284401387,-1.518279314,-0.1387711316
1.846,-0.1103918552,-1.927341938,4.346730232,0.2826560736,-1.525819182,-0.1209862232
1.848,-0.0393127948,-1.993364453,4.372205257,0.2813121676,-1.532660842,-0.1058542207
1.85,0.002949656453,-2.055326462,4.393676281,0.2807536721,-1.539240718,-0.09243264049
1.852,0.04031835496,-2.135647058,4.406346321,0.2811725438,-1.548229218,-0.0752935037
1.854,0.04701254144,-2.231874704,4.437978745,0.2810154557,-1.558212519,-0.05632177368
1.856,0.05369715393,-2.321944475,4.473479271,0.2806489468,-1.567008972,-0.03848451003
1.858,0.0549229905,-2.396365881,4.481179237,0.2811201811,-1.574374199,-0.02176425606
1.86,0.04374685138,-2.458615303,4.474265099,0.2816263139,-1.579889536,-0.008656833321
1.862,0.01212423667,-2.520577192,4.459372997,0.2830924094,-1.585928321,0.004572762642
1.864,-0.03422750905,-2.584645987,4.437461376,0.286216557,-1.593747377,0.0197396744
1.866,-0.07548438758,-2.64722085,4.412657261,0.2903355062,-1.601985335,0.03380702808
1.868,-0.1328781843,-2.707985878,4.390285969,0.2948559225,-1.609437943,0.04616395757
1.87,-0.1962479204,-2.76477623,4.366477966,0.299847573,-1.61689043,0.05717698485
1.872,-0.2409428805,-2.821652889,4.328391075,0.3059736788,-1.625617146,0.07082545757
1.874,-0.2671546042,-2.867190599,4.301365376,0.3113143742,-1.634204149,0.08553858846
1.876,-0.2990740836,-2.903505802,4.271141052,0.3144385219,-1.640871286,0.09719738364
1.878,-0.3193960786,-2.937790871,4.235735416,0.317283392,-1.646421432,0.1085769311
1.88,-0.3358873725,-2.962412834,4.211362362,0.3200235665,-1.651203632,0.1207767874
1.882,-0.3326312304,-2.978904009,4.182948112,0.322083056,-1.655043364,0.1349139512
1.884,-0.3406949043,-2.998680115,4.155519962,0.3241949081,-1.65787077,0.1504473835
1.886,-0.3472549915,-3.013457298,4.161284924,0.327249229,-1.658394337,0.1637118906
1.888,-0.3622714579,-3.01715374,4.161419392,0.330704987,-1.657661319,0.174148947
1.89,-0.3886843026,-3.018609524,4.196834564,0.3336895108,-1.655776381,0.1837831736
1.892,-0.4054054022,-3.013744354,4.274214745,0.3383844197,-1.652477741,0.1958957613
1.894,-0.4035283327,-3.010239363,4.376255989,0.3440742195,-1.648620605,0.20935224
1.896,-0.3899292648,-2.972784519,4.509067059,0.3492403924,-1.643890738,0.22209315
1.898,-0.355127126,-2.937340736,4.644492626,0.353551358,-1.638811827,0.2329665422
1.9,-0.2920446992,-2.930330515,4.763761997,0.3581415713,-1.632319212,0.2437003255
1.902,-0.1691455692,-2.926719904,4.93173933,0.362539798,-1.622737288,0.2559525371
1.904,-0.1219223216,-2.934467793,4.993700981,0.3665365875,-1.61062479,0.2716779411
1.906,9.576806406e-06,-2.9589746,5.192697525,0.3697479963,-1.598756552,0.2897595465
1.908,0.04392881319,-2.961292267,5.256910324,0.3713537157,-1.590134621,0.3040538132
1.91,0.1199495122,-2.969423056,5.37420702,0.3723310828,-1.582839131,0.3171437681
1.912,0.2340858877,-3.038184643,5.482635975,0.3698876202,-1.572611451,0.3354173601
1.914,0.3360310197,-3.113716841,5.615341187,0.3647912741,-1.561179519,0.3557853699
1.916,0.4221552014,-3.175247908,5.691889286,0.3589269519,-1.551807165,0.3741811514
1.918,0.5039028525,-3.239594221,5.79353714,0.3527659476,-1.544825792,0.3892433345
1.92,0.5796650052,-3.311238527,5.916512489,0.3464653194,-1.539136052,0.4039040804
1.922,0.672847271,-3.379281759,6.015163422,0.3385240734,-1.533044815,0.4212177694
1.924,0.7687015533,-3.446903467,6.11026144,0.3267779946,-1.527093291,0.4424758852
1.926,0.8713936806,-3.493073225,6.214189053,0.3150493801,-1.522136569,0.4628089666
1.928,0.9581212401,-3.540947676,6.293839455,0.3064798117,-1.51665616,0.4796164632
1.93,1.059491754,-3.59060359,6.332864761,0.2979451418,-1.510949016,0.4981344342
1.932,1.16058445,-3.636083841,6.368299007,0.2887996435,-1.506096959,0.5163905621
1.934,1.224624634,-3.694320202,6.389741421,0.278118223,-1.500337362,0.5361477137
1.936,1.292198539,-3.744186878,6.40440321,0.2674717009,-1.494525433,0.5564982295
1.938,1.356161952,-3.807748079,6.427722454,0.2599667907,-1.489952683,0.5717175007
1.94,1.392649651,-3.854003906,6.450353146,0.2534567118,-1.48524034,0.5854881406
1.942,1.404917598,-3.885865927,6.466882229,0.2447998822,-1.479218841,0.6021385789
1.944,1.390973806,-3.930129766,6.496465206,0.2352878302,-1.471399784,0.6225065589
1.946,1.361007929,-3.964730978,6.525109291,0.2269800752,-1.462865114,0.6446722746
1.948,1.316150188,-3.982898235,6.535883427,0.2207666934,-1.455901265,0.6622128487
1.95,1.280122161,-3.996219397,6.546034813,0.2169793248,-1.449932218,0.6782000661
1.952,1.257128239,-4.007845879,6.559949875,0.2138551921,-1.444329739,0.6963863969
1.954,1.239487767,-4.032458305,6.56923008,0.2103819847,-1.436685205,0.7164052725
1.956,1.226827264,-4.055404186,6.576019764,0.208008334,-1.428202868,0.7343472838
1.958,1.227737069,-4.067538261,6.578078747,0.2086192071,-1.420034766,0.7492175102
1.96,1.238913178,-4.065239429,6.575847149,0.2117258906,-1.410383105,0.7660075426
1.962,1.252244115,-4.055681705,6.562133312,0.215495795,-1.400138021,0.7838971615
1.964,1.254552126,-4.060269356,6.552805901,0.2211506665,-1.389037728,0.8041080832
1.966,1.261409044,-4.080725193,6.543420315,0.2269102484,-1.380084157,0.8227656484
1.968,1.269894123,-4.113860607,6.556463718,0.2317971736,-1.372980714,0.8388750553
1.97,1.264253378,-4.138646126,6.573089123,0.2381850779,-1.365353584,0.8561537862
1.972,1.27528584,-4.160547733,6.593449593,0.2452187538,-1.357499599,0.8729788065
1.974,1.275467873,-4.191950321,6.607862949,0.252810955,-1.348005056,0.8899259567
1.976,1.276320219,-4.222212791,6.612938404,0.2615899444,-1.338458061,0.9075711966
1.978,1.282736659,-4.263029099,6.624085903,0.2695660889,-1.330464482,0.9264207482
1.98,1.331137776,-4.305282116,6.635118008,0.2769314051,-1.321528435,0.94514817
1.982,1.3022542,-4.390066147,6.687905788,0.2846632004,-1.31095171,0.9628632665
1.984,1.320861936,-4.448513031,6.759741306,0.2922204733,-1.297477722,0.9833359718
1.986,1.3535285,-4.507448673,6.79076004,0.2984513044,-1.28410852,1.002080798
1.988,1.395015121,-4.569056034,6.855739117,0.3025702834,-1.272362471,1.016968489
1.99,1.423688054,-4.6262393,6.951124191,0.3055198789,-1.259045601,1.0321877
1.992,1.46621871,-4.687569141,7.056660652,0.3073350191,-1.246060371,1.047214985
1.994,1.527883768,-4.745480061,7.152112484,0.3068288863,-1.230352402,1.065959811
1.996,1.583687901,-4.80550766,7.255187511,0.3037745655,-1.212916613,1.086537242
1.998,1.63118875,-4.854004383,7.37556839,0.3000046313,-1.199826598,1.102175474
2.0,1.66288805,-4.909894466,7.504376411,0.2956238687,-1.188813567,1.116103172
2.002,1.740661263,-4.976798534,7.63257122,0.2884854674,-1.177381635,1.132823348
2.004,1.83025229,-5.036318302,7.749159336,0.2783102095,-1.164204478,1.151306391
2.006,1.921241522,-5.091777325,7.825706959,0.2656565607,-1.149369121,1.169894218
2.008,2.034994841,-5.153729916,7.908402443,0.250402391,-1.13481307,1.188813567
2.01,2.132477045,-5.219819546,7.991050243,0.2328269184,-1.121635795,1.20787251
2.012,2.227814198,-5.272625923,8.056958199,0.2143089771,-1.109627962,1.226373076
2.014,2.324836969,-5.325336456,8.124406815,0.1944645792,-1.099068761,1.245257497
2.016,2.426887512,-5.355168343,8.187633514,0.1734333634,-1.091302037,1.263670683
2.018,2.52506876,-5.373603344,8.23916626,0.1516342014,-1.085612297,1.280652761
2.02,2.625136614,-5.390066624,8.278201103,0.1291718185,-1.080446124,1.297024012
2.022,2.717869043,-5.400265694,8.305638313,0.1080358773,-1.076152563,1.312836647
2.024,2.794215441,-5.401156425,8.325558662,0.08806931227,-1.071859002,1.328125715
2.026,2.848228455,-5.408176422,8.330337524,0.06953391433,-1.06665802,1.343170524
2.028,2.895863533,-5.426419735,8.320023537,0.05283111706,-1.061369658,1.35783124
2.03,2.925427198,-5.444740295,8.301703453,0.03782128543,-1.055749655,1.371374965
2.032,2.939868927,-5.474150658,8.293438911,0.02445206232,-1.049361706,1.384447575
2.034,2.918235064,-5.505208015,8.278833389,0.01364847459,-1.042973876,1.397677064
2.036,2.877868652,-5.528996944,8.255752563,0.005462880712,-1.035957575,1.409685016
2.038,2.842195034,-5.549500942,8.241110802,0.000244346098,-1.028365493,1.4199301
2.04,2.805621386,-5.552029133,8.237710953,-0.002181661548,-1.020843029,1.428848743
2.042,2.751972198,-5.545909882,8.242775917,-0.003490658477,-1.013058901,1.436894655
2.044,2.715493917,-5.541686535,8.236514091,-0.003089232836,-1.004524231,1.443945765
2.046,2.666336298,-5.522915363,8.236465454,-0.0006981316837,-0.9944187999,1.449670434
2.048,2.633832455,-5.508790016,8.234138489,0.004345869645,-0.9836850166,1.455779076
2.05,2.601051331,-5.493323326,8.233658791,0.01272345055,-0.9733002782,1.462376475
2.052,2.582941294,-5.49445343,8.226669312,0.02371902391,-0.9627759457,1.468851686
2.054,2.561058283,-5.512630463,8.230958939,0.03701843321,-0.9505935907,1.476216912
2.056,2.531552315,-5.542461872,8.240440369,0.04874704406,-0.9393187761,1.483006239
2.058,2.481091976,-5.584168911,8.261835098,0.05825908855,-0.9287420511,1.489551187
2.06,2.454133272,-5.643353462,8.301654816,0.06813765317,-0.9171705246,1.496637225
2.062,2.442430496,-5.703294754,8.362390518,0.07813838869,-0.9064716697,1.503932714
2.064,2.425010204,-5.751447201,8.421192169,0.08758062124,-0.8954761028,1.511018753
2.066,2.416611433,-5.805517673,8.497692108,0.0961676389,-0.8840616345,1.517686009
2.068,2.423774958,-5.849628448,8.572995186,0.1047023013,-0.8734151125,1.524806857
2.07,2.417166948,-5.907348156,8.648756981,0.1135511175,-0.8630827665,1.531508923
2.072,2.431934357,-5.94570303,8.717891693,0.1209338605,-0.8538325429,1.538019061
2.074,2.497181177,-5.996316433,8.776799202,0.1255240738,-0.8453327417,1.544773459
2.076,2.558769464,-6.033158302,8.849486351,0.1295906901,-0.8365014195,1.551632643
2.078,2.634062529,-6.054734707,8.951202393,0.1331511736,-0.8278620243,1.559154987
2.08,2.742720842,-6.069071293,9.060779572,0.1352281123,-0.8186641335,1.566310883
2.082,2.848525286,-6.075928211,9.179839134,0.1354375482,-0.8073369265,1.572384596
2.084,2.952567816,-6.069703579,9.293275833,0.1336398572,-0.7945262194,1.578964472
2.086,3.057395458,-6.058345318,9.401446342,0.1306902468,-0.7814188004,1.58605051
2.088,3.156620741,-6.045435905,9.496946335,0.1263443828,-0.7675608993,1.592106819
2.09,3.253337145,-6.02378273,9.579593658,0.1210909411,-0.7540345788,1.597412586
2.092,3.3528018,-6.01288414,9.647981644,0.1145459563,-0.7406304479,1.602718353
2.094,3.467062712,-6.00404501,9.723925591,0.1064999923,-0.7263362408,1.607099175
2.096,3.57763648,-5.988233566,9.807655334,0.0985063836,-0.7104188204,1.612020969
2.098,3.700478077,-5.969606876,9.900474548,0.0892386809,-0.6922674179,1.617832899
2.1,3.848698378,-5.947283268,10.01019573,0.07820820063,-0.6731909513,1.623348236
2.102,4.005681515,-5.907060623,10.13162994,0.06773623079,-0.6524913311,1.629055381
2.104,4.175477982,-5.86595726,10.25498867,0.05745624006,-0.6295402646,1.634535789
2.106,4.34581089,-5.835483551,10.37391281,0.04792674258,-0.6044249535,1.638986349
2.108,4.483066082,-5.818676472,10.48051262,0.03993313387,-0.5765171647,1.642058134
2.11,4.613109589,-5.806255341,10.58324337,0.03225368261,-0.5471607447,1.644571424
2.112,4.719699383,-5.806408405,10.65299988,0.02598795295,-0.5166000128,1.646211982
2.114,4.805909634,-5.818235874,10.71422482,0.02216568217,-0.4845906794,1.64657855
2.116,4.86105299,-5.830896378,10.75440884,0.01870992966,-0.4526162446,1.646718144
2.118,4.913945675,-5.841449738,10.78700924,0.01541125681,-0.4216191769,1.646159649
2.12,4.936441898,-5.844791889,10.79450798,0.01375319436,-0.3922627568,1.644344449
2.122,4.946621418,-5.842292309,10.7830534,0.01308996975,-0.3648436368,1.642651558
2.124,4.948000908,-5.81819725,10.77694321,0.01343903504,-0.3385415077,1.641342521
2.126,4.933185577,-5.781959057,10.74960136,0.01610938832,-0.3117332458,1.639858961
2.128,4.90887928,-5.728740692,10.71990395,0.02066469751,-0.2847155631,1.637991548
2.13,4.883577824,-5.684706688,10.69018745,0.02631956525,-0.2582563758,1.636281133
2.132,4.84800005,-5.646724701,10.66973114,0.03207915276,-0.2320240736,1.634012103
2.134,4.799608231,-5.61002636,10.64192963,0.03728023171,-0.2071356773,1.631184697
2.136,4.743421078,-5.569076061,10.62294865,0.04255112633,-0.1850223541,1.628776193
2.138,4.686362267,-5.528853416,10.60736752,0.04783947393,-0.1655968428,1.626542091
2.14,4.65195322,-5.476027966,10.60800838,0.05284857005,-0.1488591284,1.624988794
2.142,4.63966608,-5.435642242,10.62164688,0.0561472401,-0.1338318437,1.624360442
2.144,4.646187782,-5.397986412,10.66075802,0.05811946467,-0.1207767874,1.624430299
2.146,4.664594173,-5.357686996,10.72230721,0.05986479297,-0.1107236892,1.624761939
2.148,4.703371048,-5.316659927,10.79015064,0.06120869517,-0.10348057,1.625844002
2.15,4.755612373,-5.27548933,10.87329578,0.06112143025,-0.09831439704,1.628182769
2.152,4.80975008,-5.235984802,10.97708035,0.05951572582,-0.0940034315,1.630085111
2.154,4.872516632,-5.174798965,11.0883522,0.05791002512,-0.09129817039,1.631795526
2.156,4.927707672,-5.13105154,11.19850445,0.05567600206,-0.08988445252,1.635024428
2.158,4.986892223,-5.101699352,11.32033062,0.05255186185,-0.0899368152,1.63886416
2.16,5.048452377,-5.080026627,11.43971539,0.04907865822,-0.09185668081,1.643262386
2.162,5.107598305,-5.054945469,11.5763483,0.04513421282,-0.0945270285,1.648219109
2.164,5.181876183,-5.020162106,11.70604706,0.04005530477,-0.09782570601,1.652442813
2.166,5.253807545,-4.976357937,11.83980656,0.03295181692,-0.1004436985,1.656998158
2.168,5.366660595,-4.930341244,11.96310711,0.02436479554,-0.1021366641,1.661693096
2.17,5.481084347,-4.881336689,12.06116486,0.01583013684,-0.1040739864,1.666457772
2.172,5.585806847,-4.85292244,12.17685223,0.00792379491,-0.1045626774,1.671222568
2.174,5.683939934,-4.8382411,12.31173229,0.0002967059845,-0.1019097716,1.675062299
2.176,5.776462078,-4.836670399,12.45422554,-0.007522369269,-0.09735446423,1.679146409
2.178,5.83744669,-4.83256197,12.60330772,-0.01450368576,-0.09203121066,1.683335185
2.18,5.908602715,-4.84136343,12.75874901,-0.02050761878,-0.08419468254,1.685988069
2.182,5.968706608,-4.841736794,12.89929771,-0.02483603545,-0.07374016196,1.686441779
2.184,6.014483929,-4.818350315,13.02825832,-0.02565634064,-0.06096434966,1.684731364
2.186,6.056210041,-4.801552296,13.14631271,-0.02410299703,-0.04471533373,1.681502581
2.188,6.087525845,-4.799656391,13.27410507,-0.02125811018,-0.02546435408,1.677662849
2.19,6.106219769,-4.791209698,13.39243698,-0.01630137488,-0.002478367416,1.672636271
2.192,6.129031658,-4.765333176,13.49913216,-0.009878563695,0.02326523885,1.66616106
2.194,6.14568615,-4.731622696,13.56815147,-0.003787364578,0.05016076192,1.658167481
2.196,6.176168919,-4.693114281,13.60090446,0.002775073517,0.07752752304,1.649231434
2.198,6.204746246,-4.673261166,13.62435818,0.01050688233,0.1041437984,1.64022553
2.2,6.225958347,-4.638622284,13.63628101,0.01902408898,0.1310567707,1.629928112
2.202,6.256298065,-4.592059612,13.61929226,0.02785545401,0.1596976221,1.618478775
2.204,6.277797699,-4.558464527,13.60839367,0.03680899367,0.1899790913,1.605615616
2.206,6.292479038,-4.522914886,13.59613514,0.04646066576,0.2206096202,1.592176557
2.208,6.27191782,-4.482184887,13.59629822,0.05574581772,0.249808982,1.57912159
2.21,6.240946293,-4.439070225,13.57623482,0.06457718462,0.2771582901,1.565926909
2.212,6.213259697,-4.373124599,13.53914356,0.07291985303,0.3046995699,1.552976489
2.214,6.169455528,-4.281915188,13.49473667,0.08009316027,0.3323281407,1.540130854
2.216,6.112473488,-4.19282198,13.4254961,0.08616690338,0.3565184176,1.526691794
2.218,6.051880836,-4.092045307,13.34115219,0.0905302316,0.3770958483,1.512380123
2.22,5.995875835,-3.99449563,13.24646664,0.09358455241,0.396835506,1.499307632
2.222,5.932036877,-3.897425175,13.14897442,0.09576621652,0.4155977964,1.487980485
2.224,5.856935501,-3.800344944,13.05736351,0.09697049111,0.4320737123,1.476426363
2.226,5.815295696,-3.700133324,12.97491646,0.09745918214,0.4473104179,1.465099216
2.228,5.787283897,-3.609910488,12.91247559,0.09702285379,0.4620235562,1.454801798
2.23,5.75876379,-3.540737152,12.87582493,0.0949633643,0.4756022096,1.444609046
2.232,5.74359417,-3.482873917,12.85714054,0.09190903604,0.4877497256,1.435411096
2.234,5.735846519,-3.446386337,12.8569212,0.08876744658,0.4980646074,1.427260399
2.236,5.740950584,-3.400168657,12.85657597,0.08433430642,0.506354928,1.418882847
2.238,5.746648788,-3.356000423,12.86886311,0.07874925435,0.5125857592,1.41073215
2.24,5.764328003,-3.324971437,12.90484238,0.07298967242,0.5176472068,1.402057886
2.242,5.788863659,-3.312550545,12.94741249,0.06654940546,0.5222199559,1.393156767
2.244,5.836153984,-3.314599752,13.01470757,0.05888740718,0.5263040066,1.384796619
2.246,5.884727478,-3.309552908,13.10119629,0.04975933582,0.5295329094,1.376663327
2.248,5.95271349,-3.308192968,13.21072674,0.03940953314,0.5305451751,1.369245648
2.25,6.038147926,-3.294201136,13.33706379,0.02921681106,0.5296899676,1.362124801
2.252,6.13381052,-3.296604872,13.46461678,0.01937315427,0.5280668139,1.354811788
2.254,6.249824047,-3.300225019,13.59050369,0.009686577134,0.5258327723,1.347411633
2.256,6.370137691,-3.307015181,13.73176193,0.0006981316837,0.5233544111,1.340290666
2.258,6.489263535,-3.298779011,13.84686565,-0.006736970972,0.5213996768,1.332977772
2.26,6.587665081,-3.308566332,13.95279503,-0.01260127686,0.5193226933,1.324949265
2.262,6.675197124,-3.314666986,14.07394123,-0.01720894687,0.5169141889,1.315681577
2.264,6.75524044,-3.323707581,14.20885944,-0.02001892589,0.5162509084,1.304965258
2.266,6.808228493,-3.342956781,14.33166313,-0.01991420612,0.5172283053,1.293358803
2.268,6.832898617,-3.355291843,14.4400816,-0.01607448235,0.5182754993,1.280722618
2.27,6.857175827,-3.346289635,14.52318954,-0.01041961554,0.5202652216,1.26770246
2.272,6.883952141,-3.313441277,14.57449245,-0.003682644805,0.5236162543,1.255450249
2.274,6.893280506,-3.2419312,14.61979008,0.003141592722,0.5271766782,1.24415791
2.276,6.916149616,-3.151889801,14.65773296,0.0071907565,0.5295852423,1.233249664
2.278,6.91905117,-3.051563263,14.67331505,0.009459684603,0.5292885303,1.22185266
2.28,6.903757095,-2.937608957,14.67752934,0.01197295822,0.525064826,1.209966898
2.282,6.886011124,-2.819603443,14.66373825,0.01424188633,0.5189387202,1.198814273
2.284,6.858382225,-2.680950403,14.6584425,0.0176976379,0.5135980248,1.18795836
2.286,6.824557304,-2.55630827,14.64767742,0.02258456126,0.5095314384,1.1769104
2.288,6.783127785,-2.442459345,14.64738083,0.02804744057,0.5072450638,1.166735172
2.29,6.734535217,-2.316265583,14.64420223,0.03342305496,0.5059884191,1.157537222
2.292,6.705325603,-2.17460537,14.64673901,0.03719296679,0.502968967,1.149055004
2.294,6.689562321,-2.0159657,14.63996887,0.03998549283,0.4950975478,1.140869379
2.296,6.693689823,-1.861175776,14.60637283,0.0420624353,0.4849571884,1.133434296
2.298,6.696783066,-1.698245645,14.56604576,0.04260348529,0.4757767618,1.126313329
2.3,6.707030296,-1.549881697,14.51836205,0.04281292483,0.4669977427,1.118040442
2.302,6.687838554,-1.41595006,14.49800205,0.04290019348,0.45931831,1.109942079
2.304,6.72218132,-1.292255998,14.49222755,0.04230678082,0.4520751834,1.103170276
2.306,6.783577442,-1.167106271,14.43972778,0.04080579802,0.444709897,1.097271085
2.308,6.813438416,-1.06455791,14.42681694,0.03766420484,0.4376238585,1.092017651
2.31,6.861265182,-0.9815844297,14.41906071,0.0332310684,0.4299967587,1.086729288
2.312,6.906975269,-0.9150447249,14.40848732,0.02890265174,0.4224743843,1.081405997
2.314,6.945033073,-0.8543948531,14.40074062,0.02335250564,0.4149869382,1.076414347
2.316,6.99003458,-0.8289875388,14.41757584,0.01572541706,0.407848537,1.070899129
2.318,7.063680172,-0.8121706247,14.44749451,0.008517206647,0.4014606476,1.064563632
2.32,7.165098667,-0.8086081147,14.48688412,0.002426007763,0.3963293731,1.057878971
2.322,7.267790794,-0.7994143963,14.5587759,-0.003508111695,0.3926816285,1.051368833
2.324,7.37556839,-0.7949802876,14.63791847,-0.008761553094,0.3896098435,1.044300318
2.326,7.481027603,-0.7979778647,14.70753288,-0.01406735368,0.3870965838,1.036673188
2.328,7.580406666,-0.7979300022,14.79257488,-0.01937315427,0.3848101795,1.029168248
2.33,7.667325497,-0.7939268947,14.88252068,-0.02375393175,0.3826110661,1.02105248
2.332,7.726021767,-0.8011573553,14.96684456,-0.02741912194,0.3823492825,1.012692332
2.334,7.761915684,-0.7993952036,15.03713799,-0.030176742,0.3838328123,1.003930807
2.336,7.765516758,-0.7817643285,15.09652328,-0.03256784379,0.3856828511,0.9946805835
2.338,7.750442982,-0.7686632872,15.13519573,-0.0354301855,0.3870791197,0.9858666658
2.34,7.731327534,-0.7539436817,15.14143944,-0.03913028166,0.3870092928,0.9772272706
2.342,7.691526413,-0.7090189457,15.128232,-0.0422020629,0.3873060048,0.9680294394
2.344,7.651638508,-0.653234005,15.09752941,-0.04377285764,0.3877249062,0.9576621652
2.346,7.596945763,-0.5858611465,15.04073906,-0.04473278672,0.3879168928,0.9468061924
2.348,7.512794495,-0.4974768162,14.96968842,-0.04511675984,0.3883008361,0.9357582927
2.35,7.405630112,-0.3736869991,14.88186932,-0.04558800161,0.3887721002,0.9246405363
2.352,7.273402691,-0.2195961773,14.77563381,-0.04672246426,0.3892782331,0.9134878516
2.354,7.132920265,-0.06347507238,14.66708946,-0.04719370231,0.3891735077,0.9023177624
2.356,6.990312576,0.1133415103,14.53569603,-0.04644321278,0.3888069987,0.8911476731
2.358,6.920621872,0.2048191726,14.46535492,-0.04454080388,0.387707442,0.878703475
2.36,6.693814278,0.4769537151,14.24049091,-0.04157374427,0.3860144615,0.8651073575
2.362,6.54117012,0.6442030668,14.10385895,-0.03815289587,0.3843738735,0.8519999385
2.364,6.392566204,0.7934001684,13.95251656,-0.03422590718,0.3830648661,0.838473618
2.366,6.317532063,0.8694590926,13.87901497,-0.02947861142,0.3815813363,0.8237953782
2.368,6.182068348,1.029305696,13.74883652,-0.02471386269,0.3787713647,0.8089950085
2.37,5.991642952,1.262529492,13.5562191,-0.01991420612,0.3751061559,0.7947531343
2.372,5.897244453,1.400837898,13.45720387,-0.01387536712,0.370777756,0.7804414034
2.374,5.820534229,1.537805319,13.38665199,-0.007941247895,0.3652276099,0.7654665112
2.376,5.788087845,1.611987352,13.35504913,-0.0033161256,0.3579146564,0.7508406639
2.378,5.737943649,1.747949243,13.29873753,0.002024581889,0.3492578268,0.7360576987
2.38,5.693076611,1.943172336,13.22972679,0.008307767101,0.339100033,0.7211874723
2.382,5.701820374,2.060909748,13.18003178,0.01560324337,0.3270747066,0.7072597742
2.384,5.721692085,2.106571674,13.15824509,0.02392846346,0.3136705756,0.693698585
2.386,5.774919987,2.178043604,13.13556767,0.03206169978,0.2990446985,0.6802769899
2.388,5.854101181,2.227843046,13.14263439,0.0404218249,0.2839476168,0.667553544
2.39,5.998375416,2.254983664,13.19281769,0.04918337986,0.2680127621,0.6557551026
2.392,6.143857002,2.262597084,13.24402428,0.05749114603,0.2511179745,0.6446373463
2.394,6.222635746,2.263535738,13.27178764,0.06592108309,0.2344500721,0.6337988377
2.396,6.391254425,2.26072979,13.34138298,0.07440338284,0.2175727487,0.6233792305
2.398,6.578518867,2.235734463,13.42019939,0.08321730047,0.2002765238,0.6131516099
2.4,6.887438297,2.208105326,13.55783749,0.09281660616,0.1828232408,0.6023654938
2.402,7.078543663,2.187036037,13.65817356,0.10239847,0.1646718085,0.5916491747
2.404,7.166372776,2.179997206,13.7010107,0.1129228026,0.145909518,0.5809851885
2.406,7.339319706,2.191642523,13.75391293,0.1244768798,0.1281769872,0.5696929097
2.408,7.493573666,2.21081543,13.78746986,0.1367465407,0.1111774743,0.558470428
2.41,7.64413023,2.280266285,13.83921432,0.1496270746,0.09384635091,0.5472654104
2.412,7.679871082,2.301804781,13.84959507,0.1618269235,0.0776322484,0.5364094973
2.414,7.748671055,2.42945385,13.84895325,0.1737300754,0.06314601004,0.5256582499
2.416,7.770506382,2.506077766,13.81343269,0.1855110526,0.05030038953,0.514662683
2.418,7.780092239,2.549211979,13.78968239,0.1963146329,0.0390779227,0.5038765669
2.42,7.774384975,2.684426785,13.70103931,0.2054427117,0.02818706818,0.4934918582
2.422,7.745779037,2.794368744,13.62851429,0.2138901055,0.01745329238,0.4832642078
2.424,7.709674358,2.933577061,13.53782272,0.2227040082,0.008342674002,0.4724606276
2.426,7.678808212,3.004244328,13.4872179,0.2303834558,0.0002268928074,0.4620759189
2.428,7.612938881,3.164569616,13.38930511,0.2363524884,-0.007487462368,0.4515341222
2.43,7.498697281,3.446472406,13.28123093,0.2413092256,-0.01410226058,0.4396658838
2.432,7.47719717,3.541359663,13.23458195,0.246807009,-0.01994911395,0.4275882244
2.434,7.416365147,3.731554985,13.13574886,0.2525142431,-0.02422516979,0.4154058099
2.436,7.338027,3.922631264,13.05089855,0.25736624,-0.02628465928,0.4028568864
2.438,7.254239559,4.121732712,12.95048618,0.262165904,-0.02680825815,0.3908141255
2.44,7.115845203,4.369628906,12.77140903,0.2663372457,-0.02576106042,0.3799232841
2.442,7.068641186,4.448120117,12.69779205,0.2708750963,-0.02249729447,0.3694862127
2.444,6.985054493,4.589282036,12.53638458,0.2761983573,-0.01705186628,0.357670337
2.446,6.890560627,4.708685875,12.38066578,0.2812074423,-0.01106538717,0.3446501791
2.448,6.791593552,4.820859432,12.22079086,0.2870368361,-0.005148721393,0.3320837915
2.45,6.705296993,4.926060677,12.08177376,0.2935120165,0.0016580628,0.3197094202
2.452,6.618483543,5.026348591,11.94290066,0.2996206582,0.009494591504,0.307108134
2.454,6.53592205,5.120297432,11.80741787,0.3052580953,0.01836086437,0.2946988344
2.456,6.453235149,5.201479912,11.67567825,0.3116459846,0.02701769583,0.283354193
2.458,6.371487617,5.272942066,11.54976273,0.3177371919,0.03401646763,0.2727251351
2.46,6.285057068,5.331551552,11.41772747,0.3224146664,0.0409803316,0.2624102533
2.462,6.171811581,5.380173206,11.24907017,0.3271619678,0.04853760451,0.2528458536
2.464,6.092831612,5.385153294,11.14071846,0.3322583139,0.05539675057,0.2435781509
2.466,6.057349682,5.390765667,11.08351707,0.3371627033,0.0619940944,0.2357067168
2.468,6.002933979,5.391196251,10.98408985,0.3410547972,0.06876597553,0.229353711
2.47,5.960346222,5.382194519,10.89994812,0.3448421657,0.07531096041,0.2226516455
2.472,5.917058468,5.350744247,10.82230854,0.3489262164,0.08019787818,0.2164557278
2.474,5.910642624,5.317723274,10.77426147,0.3527834117,0.08313003182,0.2114117295
2.476,5.906840324,5.272942066,10.74404716,0.3565707505,0.08557349443,0.2065248042
2.478,5.908669472,5.241913319,10.73696995,0.3603232205,0.08721410483,0.2020044029
2.48,5.905346394,5.173372269,10.72634029,0.3646865487,0.08660323918,0.1985835582
2.482,5.929681301,5.089680195,10.70776081,0.3689800501,0.08415977657,0.1953023374
2.484,5.949495792,5.031261921,10.67115784,0.3723136485,0.0812625289,0.1920734793
2.486,5.955931187,4.994429111,10.65347004,0.3752457798,0.07756242901,0.1894903928
2.488,5.952895164,4.934459686,10.62934589,0.3792949617,0.07290240377,0.1875007153
2.49,5.891009808,4.909166813,10.56297874,0.3834488392,0.06752678752,0.1857379377
2.492,5.801677227,4.892570496,10.41972828,0.3870442212,0.05996951461,0.1831199378
2.494,5.704089642,4.887235641,10.30434799,0.3900810778,0.050597094,0.1807986498
2.496,5.6089921,4.874891758,10.24281597,0.3932226896,0.04077089205,0.1792278588
2.498,5.530883789,4.846534729,10.19051743,0.3976383507,0.02919935808,0.1773079932
2.5,5.443189144,4.825350761,10.14879131,0.4016526341,0.01659808122,0.1752834171
2.502,5.362494469,4.815687656,10.10529327,0.4051781893,0.003892084118,0.1741314977
2.504,5.284548759,4.826011658,10.02456093,0.4091400802,-0.009145525284,0.1733461022
2.506,5.186118603,4.858515263,9.928562164,0.4132765234,-0.02172934823,0.1727177799
2.508,5.068007946,4.924097061,9.824252129,0.4165402651,-0.03441789374,0.1733984649
2.51,4.959244251,4.988424778,9.722182274,0.4194549918,-0.04715879634,0.1740093231
2.512,4.8799963,5.052484035,9.651898384,0.4234692454,-0.05771803856,0.1745678335
2.514,4.786047459,5.140973568,9.586038589,0.4266980886,-0.06642723083,0.1763655245
2.516,4.703390121,5.24104166,9.493038177,0.4280070961,-0.07440338284,0.1774127185
2.518,4.683834553,5.268900394,9.462258339,0.4291590154,-0.08175121993,0.1778490543
2.52,4.638804436,5.328583241,9.389753342,0.4296477139,-0.08883725852,0.1792802215
2.522,4.591935158,5.420779228,9.304461479,0.4295255244,-0.09456194192,0.1805019528
2.524,4.58478117,5.479504108,9.255054474,0.4307298064,-0.09878563881,0.1816189587
2.526,4.582885265,5.505054951,9.224198341,0.4321784377,-0.10239847,0.1824043542
2.528,4.578843594,5.568578243,9.163902283,0.432126075,-0.1045103148,0.1824043542
2.53,4.592184067,5.62521553,9.113595963,0.4321086109,-0.1041088924,0.1820727438
2.532,4.610227108,5.679017544,9.064791679,0.4330510795,-0.1023635566,0.1813222617
2.534,4.638698578,5.720255375,9.020050049,0.4334350526,-0.1000771821,0.1810081005
2.536,4.67582798,5.743938923,8.985840797,0.4326322079,-0.09662142396,0.1802576035
2.538,4.69237709,5.760679245,8.976081848,0.4301014841,-0.09173450619,0.1786868125
2.54,4.725330353,5.763648033,8.964800835,0.4268726408,-0.08564330637,0.1770985574
2.542,4.773923397,5.766818047,8.938081741,0.4239753783,-0.07812093943,0.1751961559
2.544,4.80977869,5.758304119,8.926130295,0.4199436605,-0.06969099492,0.1734682769
2.546,4.850930214,5.743297577,8.923458099,0.4138873816,-0.06058037654,0.1718102098
2.548,4.890616894,5.709404945,8.911668777,0.4070107937,-0.05054473504,0.1705186665
2.55,4.928981304,5.651522636,8.921456337,0.4007275999,-0.0401600264,0.1693492979
2.552,4.958707333,5.590116024,8.960606575,0.3931353986,-0.02930407785,0.1682497412
2.554,4.99850893,5.49412775,9.008758545,0.3846705556,-0.01857030392,0.1671676338
2.556,5.046651363,5.393877983,9.065463066,0.3764849603,-0.008517206647,0.1654572189
2.558,5.089431286,5.30009222,9.113759041,0.3677932322,0.0009250245057,0.1638340503
2.56,5.128715515,5.198338509,9.166651726,0.3595203757,0.009826203808,0.1622108966
2.562,5.153863907,5.092582226,9.201462746,0.352050364,0.01881464943,0.1606051922
2.564,5.174913406,4.965689659,9.21496582,0.3442836404,0.02783800103,0.1593311131
2.566,5.177480698,4.855938911,9.242776871,0.3360631466,0.03656464815,0.1578475833
2.568,5.182919979,4.687272549,9.290373802,0.328610599,0.04389503226,0.156625852
2.57,5.177624226,4.576114178,9.31547451,0.3221179545,0.04972442985,0.1558055431
2.572,5.169244289,4.524926186,9.327752113,0.3163060248,0.05494296551,0.1548456103
2.574,5.155261993,4.417742729,9.346829414,0.3104766309,0.05927138031,0.1544441879
2.576,5.140925884,4.333055019,9.350172043,0.3046297729,0.06262241304,0.1542870998
2.578,5.1035285,4.228371143,9.340709686,0.2987654507,0.0652404055,0.1542347521
2.58,5.056391239,4.123093128,9.323280334,0.2932327688,0.0666192174,0.1541998386
2.582,4.998298168,4.042983055,9.29121685,0.2878222466,0.06654940546,0.1545139998
2.584,4.925476074,3.972124338,9.223748207,0.2827782333,0.06494370103,0.1549503356
2.586,4.84944582,3.910258055,9.1555233,0.2788338065,0.06239552051,0.1548106968
2.588,4.748151779,3.863274097,9.084472656,0.2762856185,0.05946336687,0.1541300267
2.59,4.646369457,3.826212168,9.015089035,0.2752384245,0.0548033379,0.1535191536
2.592,4.531266212,3.797050714,8.942994118,0.2741912305,0.04911356419,0.1539205909
2.594,4.408280849,3.774133205,8.854811668,0.2731265724,0.04365068302,0.1543918252
2.596,4.297754765,3.734226704,8.781989098,0.2730044127,0.0382576175,0.1545838118
2.598,4.162559032,3.712458849,8.704924583,0.2745403051,0.0332310684,0.1546536237
2.6,4.035159111,3.68568182,8.621797562,0.2764252424,0.02738421597,0.1546885371
2.602,3.913772821,3.651349068,8.542377472,0.2784498334,0.02090904489,0.1547059864
2.604,3.780272245,3.612428904,8.46728611,0.28148669,0.01385791413,0.154077664
2.606,3.666940212,3.587481499,8.395804405,0.2855707705,0.006562437862,0.1525592357
2.608,3.558530807,3.575261593,8.334867477,0.2903878689,0.0004363323096,0.1513200402
2.61,3.460483313,3.560867548,8.277463913,0.2958158553,-0.006457718089,0.1498539746
2.612,3.393311739,3.551855803,8.230671883,0.3018198013,-0.01399754081,0.1480039209
2.614,3.333925724,3.550610542,8.184205055,0.3074222803,-0.02117084339,0.1466251165
2.616,3.284346581,3.526869774,8.134347916,0.313164413,-0.02851868048,0.1451066732
2.618,3.255740643,3.5020082,8.096327782,0.3177197278,-0.03466223925,0.1435358822
2.62,3.223888397,3.478343964,8.081561089,0.3208264112,-0.03874630854,0.1422792375
2.622,3.202848196,3.444729567,8.072874069,0.3236713111,-0.04197516665,0.1401848495
2.624,3.199707031,3.395303726,8.062962532,0.3251548409,-0.0451865755,0.137444675
2.626,3.196058035,3.34877944,8.067904472,0.3254340887,-0.04808381945,0.135053575
2.628,3.211620331,3.315959692,8.063163757,0.3268128932,-0.04988151044,0.1321912408
2.63,3.251316309,3.291835785,8.073908806,0.3292738199,-0.05061454698,0.1291369051
2.632,3.295475006,3.254754305,8.092593193,0.3305828273,-0.05028293654,0.1256811619
2.634,3.348664522,3.224175692,8.107925415,0.3311238587,-0.04982915148,0.1217541695
2.636,3.417378187,3.197054148,8.141348839,0.3310191333,-0.04996877536,0.1182460561
2.638,3.499164104,3.170009375,8.197172165,0.3293959796,-0.04907865822,0.1152615398
2.64,3.583650589,3.144228458,8.284809113,0.325905323,-0.04586725309,0.1121374071
2.642,3.662860394,3.108353853,8.373558044,0.320058465,-0.04014257342,0.1083500385
2.644,3.760218143,3.061810493,8.463378906,0.3132691383,-0.03403392062,0.1042834222
2.646,3.865649462,3.020457745,8.558983803,0.3073350191,-0.02900737152,0.1007229537
2.648,3.986920357,2.988653421,8.644983292,0.3014532626,-0.02382374369,0.09676105529
2.65,4.085590363,2.920351505,8.737552643,0.2946464717,-0.01790707745,0.09135053307
2.652,4.183369637,2.850229979,8.825257301,0.2858674824,-0.01108284108,0.08504989743
2.654,4.27900362,2.795345545,8.924502373,0.2759889066,-0.003892084118,0.07775441557
2.656,4.37144804,2.750468493,9.036808968,0.2672273517,0.002181661548,0.07066838443
2.658,4.472119808,2.705486298,9.154258728,0.2592512071,0.007487462368,0.06431538612
2.66,4.625751019,2.631821632,9.331917763,0.2525316775,0.01186823845,0.05888740718
2.662,4.670915127,2.613060474,9.386285782,0.2444159091,0.01617920212,0.05195845291
2.664,4.751714706,2.576266289,9.502768517,0.2345024347,0.02171189524,0.04344124347
2.666,4.827064991,2.520883799,9.601151466,0.2269800752,0.02649409883,0.03745476529
2.668,4.862355232,2.458481312,9.70354557,0.2198242247,0.02939134464,0.02996730246
2.67,4.89691782,2.404391289,9.797561646,0.2124938369,0.03150319308,0.0212406572
2.672,4.917335987,2.348309517,9.866687775,0.2054077983,0.03331833705,0.01232202444
2.674,4.908199787,2.280266285,9.92669487,0.1990373433,0.03438298777,0.003961897455
2.676,4.898929119,2.23243022,9.980277061,0.1942376941,0.03480186686,-0.002583087189
2.678,4.883644581,2.187189341,10.0135479,0.1891413331,0.03434807807,-0.01031489577
2.68,4.864337921,2.146181583,10.02974224,0.1848478168,0.0335277766,-0.01850049011
2.682,4.828099251,2.108209372,10.02018452,0.1799434423,0.03193952516,-0.02783800103
2.684,4.761013508,2.071329355,10.00027466,0.1741664112,0.02939134464,-0.03731513768
2.686,4.679706573,2.055700064,9.965548515,0.1695936471,0.02708750963,-0.04464552179
2.688,4.604720116,2.043115854,9.913105011,0.165841192,0.02457423508,-0.05078908056
2.69,4.513701916,2.022401333,9.862042427,0.1621061862,0.02197369561,-0.05738642439
2.692,4.410866737,2.008878946,9.796412468,0.1574286968,0.01839577034,-0.06513568759
2.694,4.284998417,1.994159341,9.724768639,0.1523672491,0.01410226058,-0.07332128286
2.696,4.171302795,1.975992084,9.636106491,0.1490511149,0.01108284108,-0.08077383786
2.698,4.053277969,1.966128111,9.56010437,0.1473755985,0.008901178837,-0.08663814515
2.7,3.947540522,1.960793734,9.468349457,0.1451241225,0.006754423957,-0.09124581516
2.702,3.841075182,1.946208239,9.368989944,0.1419999897,0.003682644805,-0.09595820308
2.704,3.760544062,1.940395117,9.287022591,0.1372526884,-0.000715585018,-0.100705497
2.706,3.673921585,1.934629917,9.220836639,0.131528005,-0.00504400162,-0.1051735431
2.708,3.584474325,1.937378407,9.149671555,0.1269901544,-0.008063420653,-0.1088910922
2.71,3.501701832,1.939724684,9.099796295,0.1226268336,-0.01087340154,-0.1119803265
2.712,3.425930262,1.953726053,9.058251381,0.1186300293,-0.01453859266,-0.1148077548
2.714,3.353596687,1.956158519,9.024550438,0.1147903055,-0.01855284907,-0.117862083
2.716,3.284959793,1.950019717,9.002964973,0.1103920713,-0.02176425606,-0.1203579083
2.718,3.240044355,1.920609474,8.974473953,0.1060811132,-0.02370157093,-0.1210560352
2.72,3.213449717,1.884207964,8.942985535,0.1027475297,-0.02513274178,-0.1216669008
2.722,3.196441174,1.852326751,8.90314579,0.09950122237,-0.02665117756,-0.1228537261
2.724,3.193194628,1.815992475,8.879758835,0.09501572698,-0.02822197415,-0.1242848933
2.726,3.193118095,1.780749798,8.871197701,0.09098401666,-0.02885029279,-0.1255066246
2.728,3.216408968,1.757152438,8.870239258,0.08775515109,-0.02911209129,-0.1256811619
2.73,3.256899595,1.728019953,8.873122215,0.08487536013,-0.02953097038,-0.126065135
2.732,3.311841726,1.725414872,8.901909828,0.08211774379,-0.02813470736,-0.1271821409
2.734,3.390103579,1.707515836,8.952667236,0.07847000659,-0.02502802201,-0.1282467991
2.736,3.479876518,1.681974649,9.018029213,0.07541567832,-0.02282890677,-0.1290147305
2.738,3.56972599,1.658281565,9.089443207,0.07321656495,-0.02097885683,-0.12868312
2.74,3.672552347,1.631610155,9.177453995,0.07042403519,-0.01865756884,-0.1279151738
2.742,3.76778388,1.612082958,9.262572289,0.06709045917,-0.01612684131,-0.1273043156
2.744,3.869336367,1.594327688,9.35444355,0.06382668763,-0.01130973361,-0.1267283559
2.746,3.981615067,1.596329212,9.441267014,0.06124360487,-0.006510077976,-0.1265014708
2.748,4.088769913,1.599748135,9.518033981,0.05797983706,-0.003298672382,-0.1263967454
2.75,4.174999714,1.597880602,9.57804203,0.05571090803,0.001151917269,-0.1266759932
2.752,4.267434597,1.594298959,9.643500328,0.0551000461,0.006126105785,-0.127112329
2.754,4.355397224,1.567129493,9.68590641,0.05420992523,0.0109955743,-0.1269727051
2.756,4.435297012,1.54718101,9.70942688,0.05227261037,0.01518436428,-0.126588732
2.758,4.511451721,1.53434813,9.738645554,0.05023057386,0.01846558414,-0.1261174977
2.76,4.561605453,1.518096328,9.760403633,0.0493928194,0.02200860158,-0.1252971888
2.762,4.589818954,1.502782941,9.7698946,0.04841543362,0.02567379363,-0.1252797395
2.764,4.614507675,1.478850484,9.772546768,0.0470889844,0.02968805097,-0.1249655709
2.766,4.614115238,1.445322156,9.776895523,0.04558800161,0.0335277766,-0.1238834709
2.768,4.606108665,1.409303665,9.779183388,0.04309218004,0.03604104742,-0.1231329814
2.77,4.606673717,1.379443288,9.776033401,0.04049163684,0.03705333918,-0.1218763441
2.772,4.598936081,1.323821187,9.75867939,0.03848451003,0.03778637946,-0.1200961024
2.774,4.581774235,1.283320785,9.745329857,0.0360934101,0.03967133537,-0.1181238815
2.776,4.553062916,1.248375177,9.731070518,0.03354522958,0.04106759652,-0.1160469428
2.778,4.527301311,1.211791635,9.722297668,0.03155555204,0.04225442186,-0.1136209369
2.78,4.491541386,1.176367044,9.696468353,0.02947861142,0.04401720315,-0.1110552996
2.782,4.453119755,1.14756,9.66796875,0.0280125346,0.04536110535,-0.1090656221
2.784,4.400571346,1.130752683,9.627717018,0.02677335031,0.0465304777,-0.1073202938
2.786,4.355503082,1.135684848,9.581375122,0.0246964097,0.04796164855,-0.1053306237
2.788,4.288982391,1.130810142,9.535588264,0.02289872058,0.04916592315,-0.1035852879
2.79,4.209475994,1.121491909,9.477620125,0.02122320421,0.04967207089,-0.1019272283
2.792,4.127651691,1.11770916,9.425004959,0.01928588748,0.04986405745,-0.0990299806
2.794,4.033636093,1.11452961,9.359020233,0.01754055917,0.05120795965,-0.09597565234
2.796,3.946515799,1.107011795,9.289032936,0.01619665511,0.05302310362,-0.09409070015
2.798,3.863791466,1.099359989,9.212198257,0.01502728462,0.05407030135,-0.09238027781
2.8,3.787780285,1.114587069,9.13194561,0.01422443334,0.05513495207,-0.09042550623
2.802,3.71191287,1.122679472,9.061325073,0.01422443334,0.05682792142,-0.08772024512
2.804,3.64456892,1.118331671,9.002064705,0.01485275198,0.05878268927,-0.08473573625
2.806,3.575874329,1.130398393,8.942487717,0.01542871073,0.06019640714,-0.08225736767
2.808,3.511297941,1.128846884,8.897964478,0.01596976258,0.06110397726,-0.07967428118
2.81,3.444959402,1.123148799,8.85955143,0.01651081443,0.06209881604,-0.07703883201
2.812,3.393809557,1.128128648,8.8282547,0.01799434423,0.06344271451,-0.07532840967
2.814,3.346222401,1.131135821,8.794113159,0.02080432512,0.06462953985,-0.07464773208
2.816,3.32259655,1.13559866,8.769903183,0.02352703735,0.06574655324,-0.07403686643
2.818,3.299181223,1.142848253,8.761600494,0.0265290048,0.0671428144,-0.07347836345
2.82,3.29135704,1.142254472,8.763209343,0.03028146178,0.06803293526,-0.07325147092
2.822,3.288330793,1.145931959,8.764415741,0.03464478627,0.06838200241,-0.07285004109
2.824,3.284021139,1.136240244,8.770516396,0.03926990926,0.06916739792,-0.07236135006
2.826,3.283523083,1.125399351,8.796037674,0.04398229718,0.07042403519,-0.0721693635
2.828,3.291701555,1.107634306,8.819013596,0.04874704406,0.07189010829,-0.07209955156
2.83,3.306507587,1.106848955,8.839593887,0.05352924764,0.07311183959,-0.07206464559
2.832,3.345437288,1.11654079,8.85609436,0.05831145123,0.07393214852,-0.07141887397
2.834,3.396893263,1.10963583,8.87884903,0.06436774135,0.07363544405,-0.07115707546
2.836,3.458788395,1.098450184,8.891489983,0.07030186057,0.07288494706,-0.07168067247
2.838,3.519131899,1.091545343,8.925746918,0.07461282611,0.07225663215,-0.07157595456
2.84,3.596895456,1.081125736,8.977002144,0.07951720059,0.0710523501,-0.07089527696
2.842,3.714173079,1.064184308,9.057427406,0.08466592431,0.07056365907,-0.07031931728
2.844,3.748592138,1.052969813,9.086560249,0.08866272867,0.07099999487,-0.06976080686
2.846,3.809481382,1.033308744,9.148119926,0.09218829125,0.07086037099,-0.06890559942
2.848,3.854511499,1.030196309,9.202622414,0.09550441802,0.07049384713,-0.06824237108
2.85,3.901409149,1.025407791,9.229187965,0.09812241048,0.06970845163,-0.06733480096
2.852,3.952951431,1.021672964,9.248073578,0.09983283281,0.06843435764,-0.06633996218
2.854,3.993988037,1.020820498,9.264363289,0.1001993492,0.06792821735,-0.06529276818
2.856,4.041671276,1.028989673,9.277301788,0.1003564298,0.06803293526,-0.06424556673
2.858,4.094065666,1.045911789,9.281017303,0.09978047013,0.06743951887,-0.06380923837
2.86,4.12816906,1.062776566,9.278891563,0.09923942387,0.06625270098,-0.06300638616
2.862,4.174175739,1.089831114,9.300429344,0.09869837016,0.06544984877,-0.06204645336
2.864,4.226474762,1.101141214,9.314172745,0.09690067917,0.06513568759,-0.06134832278
2.866,4.258758068,1.10811317,9.328384399,0.0952251628,0.06531021744,-0.06042329967
2.868,4.27867794,1.118437052,9.358081818,0.09232791513,0.06539748609,-0.05974261835
2.87,4.286779881,1.109089971,9.376862526,0.08894197643,0.06478662044,-0.05913175642
