Time (s),Acceleration x (m/s^2),Acceleration y (m/s^2),Acceleration z (m/s^2),Gyroscope x (rad/s),Gyroscope y (rad/s),Gyroscope z (rad/s)
0.0,0.00204591825604,0.01827553100884,9.76904678344727,0.0064654992192642435,0.0004571114128425449,-0.0017743521422855825
0.008333333333333333,0.01300407480448,0.01879772357643,9.74524211883545,0.006036330289449343,0.001487120986081968,-0.001917856473594883
0.016666666666666666,0.02386188320816,0.02662288211286,9.77453899383545,0.007924679510329496,-0.002060018951423118,-0.001487791457692381
0.025,0.00755349826068,0.02175894193351,9.74158000946045,0.006723001929539636,-0.000658061513760556,-0.0008015654549582253
0.03333333333333333,0.03507754206657,0.02047858946025,9.75622749328613,0.007438287467037601,-0.0017166827412665152,-0.0005436161320478805
0.041666666666666664,0.00590824848041,0.0265728123486,9.7507266998291,0.007152172939949145,-0.0004010062938709806,-0.0025468592328147166
0.05,-0.00136606593151,0.023482773453,9.74524211883545,0.006064941065964841,-0.0006585087115626932,-0.0011735133518907396
0.058333333333333334,0.00965638272464,0.02763142809272,9.72325420379639,0.007953291847291169,-0.001287511860894158,-0.0006298973498800113
0.06666666666666667,0.01526416651905,0.02647982537746,9.76536846160889,0.00826801767104373,-0.0007725071555475358,-0.00025750240143711234
0.075,0.00799687858671,0.01431283913553,9.74707221984863,0.006408277146084466,-0.0010881263346073297,-0.0022607457460236523
0.08333333333333333,0.01357575785369,0.02032834850252,9.74523258209229,0.006751166938661845,0.0005424984951447053,-0.0028048087507807893
0.09166666666666666,-0.01026419084519,0.02089344523847,9.77453994750977,0.008439684410731847,-0.0006585086465441172,-0.0018315749956884478
0.1,0.01542156934738,0.01060766167939,9.76539134979248,0.007094950346620759,-0.0009155640939987962,-0.000315172208822411
0.10833333333333334,0.0228175688535,0.0257859993726,9.73057746887207,0.007037727233143589,-0.00025794943669289673,-0.0014314629998939648
0.11666666666666667,-0.01194524765015,0.00804694835097,9.73793029785156,0.0066943911530241386,-0.0008882937405553416,-0.0027471390896872437
0.125,0.0027751615271,0.02140843868256,9.73424530029297,0.006036329769300735,0.0006860024688515756,-0.0013174643608533942
0.13333333333333333,0.0191984642297,0.01640861108899,9.73974704742432,0.007266618646754875,-0.0003737360704646782,-0.0036059271379740303
0.14166666666666666,0.01922684162855,0.0334967635572,9.74888134002686,0.007609955767171544,-0.0007447899944134003,-0.002232134449359372
0.15,0.04125759750605,0.03229508548975,9.75437450408936,0.007667178360500104,-0.0013174644908905465,-0.0035191991124513926
0.15833333333333333,-0.00806125439703,0.0311077143997,9.7781867980957,0.008067736513799332,-0.0010304565434766314,-0.001859739354624895
0.16666666666666666,0.01397682074457,0.01888348534703,9.73241710662842,0.006150774955957683,-0.0008587882433425145,-0.001516403014430966
0.175,0.00855472218245,0.01759599894285,9.75988101959229,0.006665779336211249,-0.0006576145110141467,-0.000658061513760556
0.18333333333333332,0.01044315099716,0.03273856267333,9.72873210906982,0.007609955767171544,2.928195723485923e-05,-0.00034423063827025273
0.19166666666666668,0.02509217336774,0.01690216735005,9.7415714263916,0.007638566543687216,-0.0015159559466659805,-0.0010581737046107668
0.2,0.01238882169127,0.01750301383436,9.73607921600342,0.008181734892765599,0.00040033569222341545,-0.0013460757875548269
0.20833333333333334,0.02517800778151,0.02542835660279,9.69760990142822,0.007609955247022935,-0.0005445102025592747,-0.0020318545924866704
0.21666666666666667,0.0014231762616,0.02431971020997,9.75620460510254,0.0062370566939382475,-0.0012030190441592948,-0.002145853101490089
0.225,-0.01311869546771,0.01566471159458,9.75624084472656,0.007695341809176312,0.000255937696768952,-0.002776644521881669
0.23333333333333334,0.00333322491497,0.02911207079887,9.75619888305664,0.008668128496503669,0.0013717814038207458,-0.0029496542853850462
0.24166666666666667,0.01969866082072,0.03346809372306,9.74703502655029,0.006035435113621981,0.0012568888893243343,-0.002490977842781286
0.25,0.01593653485179,0.02848977409303,9.75986099243164,0.006380113177259474,-0.001460968562125368,-0.002974689039929096
0.25833333333333336,0.02704489976168,0.00876938551664,9.71046352386475,0.00755317946138523,-0.0006585087115626932,-0.001859739354624895
0.26666666666666666,0.01244594715536,0.03147966042161,9.77084064483643,0.007581344470507438,-0.0002007267133273582,-0.0016603540233936203
0.275,-0.02781740576029,0.01735279709101,9.73976135253906,0.0074677918589344605,-0.002172676127094254,-0.0001989384585218432
0.2833333333333333,0.01995650678873,0.01979905180633,9.73424053192139,0.00795373865498185,-0.0022598516104935075,-0.0010568327613901154
0.2916666666666667,0.00732451118529,0.03514907136559,9.75801563262939,0.00709494982647215,-0.0012030187840849902,-0.002345685760560653
0.3,-0.00354065722786,0.01008550822735,9.75625610351562,0.006236609366098957,-0.0010317976167344349,-0.0025750237217881415
0.30833333333333335,0.00934161245823,0.00866209249943,9.71595668792725,0.0076962369850036745,-0.0011994425020390637,0.0003145016071750204
0.31666666666666665,0.02407652139664,0.04236627742648,9.76165008544922,0.00795418598282114,-0.002774409183056394,-0.0007412133872745934
0.325,0.00233897962607,0.02833241038024,9.75070571899414,0.006579944926069799,-0.0002856666791003832,-0.0010018451167751988
0.3333333333333333,0.0151783330366,0.02516370080411,9.73423290252686,0.006380112657110867,-0.002174911595956507,-0.001314334886498323
0.3416666666666667,0.01351887360215,0.01651591435075,9.73242950439453,0.007267066494742774,-0.0017747996001621987,-0.0019728441182096253
0.35,0.00451344391331,0.01894788071513,9.7379093170166,0.007580896622519365,-0.00037150079665815365,-0.0012597945697226962
0.35833333333333334,-0.00459947669879,0.0140911238268,9.74526119232178,0.006951893343150923,-0.0008873996700439472,-0.0016026841022259443
0.36666666666666664,0.01009266171604,0.04758786410093,9.73599910736084,0.005721604465696782,0.0005974859121945185,-0.002920148333042186
0.375,0.01555743347853,0.0188262835145,9.75622749328613,0.007409228322385248,0.0005129929654225031,-0.002491424910546271
0.38333333333333336,0.0008797996561,0.00655200425535,9.74162101745605,0.00715306707547929,-0.002087289044792268,-0.0004846051376222264
0.39166666666666666,0.01752446591854,0.00713853724301,9.73978328704834,0.007610402054713615,-0.001171278013065639,-8.538706604738554e-05
0.4,0.00479265069589,0.03160838782787,9.75436210632324,0.006665779856359858,-0.0008024596555069464,-0.002060466019188103
0.4083333333333333,-0.00244627217762,0.00098709238227,9.74531173706055,0.00649411207637435,-0.0008887408733389028,-0.0020886303781245505
0.4166666666666667,0.0159222278744,0.01437721401453,9.75441074371338,0.00503537807285117,-0.0015758606865103229,-0.0024878483684260405
0.425,-0.00223883986473,0.00934161245823,9.77458190917969,0.005921437254804324,-0.0003737360704646782,-0.0021181358103188014
0.43333333333333335,0.00144501985051,0.00243197684176,9.75629329681396,0.006608557263031298,0.0004575585131169054,-0.0012325244763535456
0.44166666666666665,0.00870500970632,0.02120818011463,9.73241519927979,0.006809284187668985,-0.0008583412405961053,-0.0011730662841255796
0.45,0.03258835151792,0.01256039179862,9.71230220794678,0.007552285846003694,0.00019826788938365338,-0.002520036467284856
0.4583333333333333,0.0106005128473,0.00962057337165,9.74894618988037,0.005377821057737867,0.0011723958125153414,-0.0012338655496115238
0.4666666666666667,-0.00963511038572,0.00810416135937,9.71966075897217,0.0060358819213126615,0.0002268792510663354,-0.0021476412425130522
0.475,0.0159796513617,0.00688090408221,9.74895286560059,0.005980448119193,-0.003924675791388895,-0.0037422783850428686
0.48333333333333334,-0.00202425452881,0.0348629578948,9.75984001159668,0.0051212124829924455,-0.001230736075256278,-0.0013433933809647409
0.49166666666666664,-0.00558637036011,0.03894722834229,9.76349449157715,0.006609004070722153,-0.0004296176230444618,-0.0015459083165880645
0.5,0.03657222911716,0.03220932930708,9.76350021362305,0.00712445577881501,-0.002289803850378614,-0.0020287251181315994
0.5083333333333333,0.02577884681523,0.01258900389075,9.75259399414062,0.0067516147866499175,-0.0009169052322753503,-0.0021172419348631354
0.5166666666666667,-0.02176610194147,0.02588613890111,9.74707221984863,0.006781565986237631,-0.0020568894770680466,0.0002309027309143993
0.525,-0.02156572602689,0.00267513375729,9.75632190704346,0.007811128459202694,-0.0024029086139633437,-0.0013706636043710433
0.5333333333333333,0.02253860794008,0.03820333257318,9.77080535888672,0.006036776576991415,-0.0008869526672975381,-0.0013447347142968487
0.5416666666666666,0.01162336952984,0.02207367308438,9.73974704742432,0.008040467200653269,-0.002399779399682577,-8.315181662276156e-05
0.55,-0.00097993947566,0.01359040196985,9.74529075622559,0.007037280425452909,0.0008889644072214828,-0.0004331940676367413
0.5583333333333333,0.00808271300048,0.03057840280235,9.73056316375732,0.006609450878412835,-0.0022312400537550974,-0.0009410459813265815
0.5666666666666667,0.00276815029792,0.03852521255612,9.75066947937012,0.007180336908774136,8.739880597133024e-05,-0.0005172399791529723
0.575,0.01009254064411,0.02807491272688,9.73789310455322,0.008010513920470946,-0.000515004737855823,-0.001689412257785734
0.5833333333333334,0.01564346253872,0.02522087469697,9.77452564239502,0.008010962288607627,-0.002177147194856086,-0.0027158453864328776
0.5916666666666667,0.02497772686183,0.01662320643663,9.75076293945312,0.006922387390807887,0.001201007239216774,-0.0016925414720666751
0.6,-0.01173781510442,0.03002763539553,9.76536846160889,0.007181678372143396,-0.001974185061430451,-0.001514167545568713
0.6083333333333333,0.0158578529954,0.03603602200747,9.74152088165283,0.00503537807285117,-0.0020627012279760518,-0.0021141123304707376
0.6166666666666667,-0.00226052408107,0.01803946122527,9.72697067260742,0.0077525649226534805,0.00017099766597717644,-0.0016339776754431584
0.625,0.02335403300822,0.01324706524611,9.73613548278809,0.007867457437149719,-0.0013465228553198121,-0.002459683879452615
0.6333333333333333,-0.002160158474,0.02120102569461,9.73977565765381,0.008010962288607627,-0.0017439528346356653,-0.0011426668464385105
0.6416666666666667,0.01447020098567,0.00905549898744,9.74166393280029,0.0076966832725457466,-0.0018575040157996195,-0.0005986035816070689
0.65,0.0182469021529,0.03162271901965,9.73422527313232,0.00520615275760375,-0.0004881815822145059,-0.001717576616722181
0.6583333333333333,0.00734596978873,0.00839028507471,9.76546859741211,0.006551781477393592,3.5987744113319843e-05,0.0018000577585515012
0.6666666666666666,0.02379750832915,0.01797509379685,9.74161434173584,0.005492266244394814,0.00045845255111909907,-0.0007756364998656293
0.675,0.02190915867686,0.04044932872057,9.75248622894287,0.006666673991889829,-0.002260298418184363,-0.0013988279633073161
0.6833333333333333,-0.01263192109764,-0.00108723214362,9.76737117767334,0.005550383493401955,-0.001690753461080864,-0.002172229189366421
0.6916666666666667,0.03138667345047,0.01751015894115,9.72512722015381,0.006579944926069799,-0.00016898590979863134,-0.00023067919703199396
0.7,-0.01986344531178,0.03264557570219,9.72875308990479,0.006093105034789831,-0.0002887960559276775,-0.0021476412425130522
0.7083333333333334,0.00582241406664,0.01135871466249,9.75813770294189,0.005721156617708709,-2.23526364731206e-06,-0.0019478087134798146
0.7166666666666667,0.01130840182304,0.00253921910189,9.73438167572021,0.005720263002327346,0.0009403753796790164,-0.002379661610330801
0.725,0.01670920662582,0.03238087520003,9.74704456329346,0.0058083324912194196,-0.0016894121277485818,-0.0016000016956356842
0.7333333333333333,0.020492894575,0.0253210645169,9.70862483978271,0.0060077179524878465,-0.0011457961907564295,-0.0017730110690277788
0.7416666666666667,-0.01048577576876,0.01702372543514,9.78194332122803,0.00712400845097572,-0.0010608560461822767,-0.0022884629071577883
0.75,-0.00125174748246,0.01377637591213,9.75082683563232,0.007981010048722521,0.00025683181604432213,-0.0018347046000808454
0.7583333333333333,0.02801032178104,0.03660828992724,9.78180503845215,0.006236609366098957,-0.0013179114286183795,-0.0018870094479940453
0.7666666666666667,0.00247488357127,0.0167090408504,9.74165725708008,0.006722108314158274,0.00016608008310851736,-0.0031789919865384047
0.775,-0.00668075541034,0.02099359408021,9.75628471374512,0.006151222283796972,-0.0016035782377559148,-0.0018002812924340814
0.7833333333333333,0.0080680847168,0.03246681019664,9.75071144104004,0.007582237565740191,-0.0013755812197490777,-0.0023738499894597736
0.7916666666666666,0.02284618094563,0.01658028922975,9.74347400665283,0.006151668571339043,-0.001110478877616847,0.0005152283042476038
0.8,-0.01366197410971,0.0079110590741,9.74904727935791,0.008127194706027298,-0.002596481934212135,0.0006050858691440627
0.8083333333333333,0.00484247459099,0.02877588756382,9.75624179840088,0.007036833617762228,0.0004302882246920269,-0.0009772572999589822
0.8166666666666667,0.02128683030605,0.01828981563449,9.7398099899292,0.005836049652353729,0.0003171839162371549,-0.0002892430911832874
0.825,0.02125824987888,0.01685925014317,9.72883892059326,0.006894223421983071,-0.00046046432355241907,-0.002233028324815038
0.8333333333333334,0.00297582079656,0.03219494596124,9.75439739227295,0.006378771193741432,-8.85164347473796e-05,-0.002090865586912499
0.8416666666666667,0.00849024672061,0.02727384865284,9.75991725921631,0.006409618609453727,-0.002203522632546483,-0.001540990831247182
0.85,0.02150156162679,0.00574374757707,9.74539184570312,0.007265724511224731,0.0009171286361207779,-0.0008927642881683907
0.8583333333333333,0.02138699963689,0.02637253142893,9.72878170013428,0.005664381352219612,-0.0004886286499794911,-0.0017747993400878943
0.8666666666666667,0.01593653485179,0.02873297035694,9.74159240722656,0.009354802737337355,-5.543454170607431e-05,-0.0013478640586149422
0.875,0.0287830401212,0.01301102153957,9.73803043365479,0.007866563301619748,5.655217048212366e-05,-0.0016916474665736824
0.8833333333333333,0.00312550133094,0.02456291019917,9.73247909545898,0.00703817404083427,-0.0012329714140813788,-0.0023161800682920983
0.8916666666666667,-0.0004504621902,0.03054975159466,9.72145748138428,0.0075250149724116295,-0.0019482557812447996,-0.0024860600973659252
0.9,-0.01305408403277,0.01494230609387,9.76368618011475,0.005664381352219612,-0.000744789799357672,-0.0014305686042896902
0.9083333333333333,0.02541405148804,0.02442695945501,9.73430442810059,0.007038174560982879,-0.0014301217965988348,-0.0012857237198711949
0.9166666666666666,0.01637982949615,0.03805307671428,9.77267074584961,0.00846606114879394,0.0020293959798534686,-0.002385026683585452
0.925,0.00163084815722,0.00578664988279,9.77657032012939,0.007580896622519365,-0.0001421627541573142,-0.0013188054341113724
0.9333333333333333,-0.01122264750302,0.02821079641581,9.75445461273193,0.008525519861170516,-0.001031350679006602,-0.002145853101490089
0.9416666666666667,0.00897681806237,0.03618623316288,9.74522590637207,0.005950495359159285,-0.00043006472331882234,-0.0014891325309503588
0.95,0.02371167391539,0.01677341759205,9.77648448944092,0.006751166418513235,-0.0007193077819929089,-0.0025754705294788226
0.9583333333333334,0.01095112785697,0.0190765876323,9.76916122436523,0.006123505122662836,-0.0023170742038220683,-0.0011390903043182797
0.9666666666666667,0.00378385395743,0.026715869084,9.7434663772583,0.00709494982647215,-0.0009446223934094856,-0.0016594596277893453
0.975,0.02770296111703,0.00170237664133,9.74546241760254,0.007008669128788628,0.0004025709335207393,-0.0008632587259369876
0.9833333333333333,0.00566505175084,0.02424098551273,9.74898910522461,0.007724847241370563,-0.00010773971471215456,0.00019692671859772393
0.9916666666666667,0.01298218034208,0.03408328816295,9.75440216064453,0.006321549640710263,8.292828274035622e-05,-0.002034536999076931
1.0,0.00382677093148,0.01977761089802,9.73437595367432,0.006379219561878114,-0.00011891603498097624,-0.0024918719783112563
1.0083333333333333,-0.00532886805013,0.0386611148715,9.7452335357666,0.00680749591660887,0.0011455727869111763,-0.0011234435827283359
1.0166666666666666,0.00925577897578,0.01909093745053,9.74353790283203,0.006979611024433666,0.0013521110723454116,0.0005639570651706053
1.025,0.02376174367964,0.03421204909682,9.72693634033203,0.005979106135674957,-0.0001730093896466953,-0.0015472493898460425
1.0333333333333334,-0.00186689198017,0.04026335477829,9.74339485168457,0.007322500296862611,0.0012291714681158946,-0.0017528936697874592
1.0416666666666667,0.01273206062615,0.0116090644151,9.74543380737305,0.0074677918589344605,-0.0014886854631853737,-0.0017140002046391024
1.05,5.017964941e-05,0.01964169181883,9.76187229156494,0.006495005691755887,-0.0010000569757522353,-0.0009432812551331062
1.0583333333333333,0.016565984115,0.01987059786916,9.71974754333496,0.0053501038966037315,-0.0018682335121231602,-0.0033144493581514023
1.0666666666666667,0.00212439429015,0.01323991268873,9.75644207000732,0.007267512262136238,-0.0016612478988494608,-0.002028278050366614
1.075,0.01503506768495,0.02096505835652,9.72890281677246,0.0071825735479707584,-0.0027185280530974422,-0.0016236957670333868
1.0833333333333333,0.03904021531343,0.03450531512499,9.74160003662109,0.008266228359686222,0.000796871503499923,-0.002839679256229692
1.0916666666666666,0.00421302439645,0.02605065330863,9.75267219543457,0.0059509432071473585,-0.0013796048296342938,-0.0027726211720707572
1.1,-0.00300419400446,0.01899079792202,9.72710800170898,0.006666226143901931,-0.0013442875164947111,-0.0012280537987033443
1.1083333333333334,-0.00103716226295,0.01059336028993,9.75465393066406,0.0068960111728945785,-0.001889691854584131,-0.0018266573803104131
1.1166666666666667,0.01008555013686,0.02034267410636,9.75639343261719,0.006724791240897143,-0.0021695471728877913,-0.00033797191712503955
1.125,0.03042819350958,0.01554312743247,9.76923084259033,0.007779387948257647,0.0009671985353203336,-0.0030117941039801846
1.1333333333333333,0.01931267604232,0.03802451491356,9.75624847412109,0.00729746606246717,-0.0019956436639657262,0.00011869250922569657
1.1416666666666666,-0.00611568056047,0.01102968398482,9.74733638763428,0.0070958439620021204,-0.0017184706222149995,-0.002027831112638781
1.15,-0.0078180572018,0.0318945273757,9.76548290252686,0.0076403553348959406,-0.0013058409890741875,0.0008312945510722083
1.1583333333333334,0.0197703782469,0.00679522240534,9.74919700622559,0.006524511123950138,-0.0016505187926375514,0.0006900258836810634
1.1666666666666667,0.02719510905445,0.02193061634898,9.74173545837402,0.004948650567476967,-3.129369309515382e-05,-0.0016621422944537356
1.175,-0.0001929756836,0.00235326704569,9.76756572723389,0.007381957968941795,-0.0009137757579201044,-0.001144007919696314
1.1833333333333333,0.00169522373471,0.00836882647127,9.7583589553833,0.007898750620255475,-0.003980110373731645,-0.002390390976617015
1.1916666666666667,0.01476346794516,0.03452677279711,9.74164962768555,0.007038175081131663,-0.0012343126173765089,-0.0024020144784333733
1.2,-0.00521420221776,0.01877614669502,9.76377487182617,0.007067680513325914,-0.002233028324815038,-0.001739482156985464
1.2083333333333333,0.00042917058454,0.01907663233578,9.73082065582275,0.0065526750927749535,-0.0015463552543158972,-0.001742164433538398
1.2166666666666666,0.01152323000133,0.03072146140039,9.74352359771729,0.006522722852890022,0.00040927675494031304,0.0006810848534735413
1.225,0.00420587183908,0.01482069026679,9.75099849700928,0.006923729374325931,-0.0011502666083323266,-0.002803020479720675
1.2333333333333334,0.01708098873496,0.0171096008271,9.73632144927979,0.006264773855072557,-0.001035374223873242,-0.0025741298463324755
1.2416666666666667,0.03550671413541,0.02346847765148,9.77103424072266,0.0073251821833040884,-0.0016581184244942155,-0.001227159793210526
1.25,0.01366181205958,0.02950550615788,9.77101135253906,0.006753402017412641,-0.0019147268692024852,-0.0009678691369678988
1.2583333333333333,0.00282522873022,0.02627242542803,9.76007461547852,0.005865555604696589,-0.0015459085766623686,-0.0013697695988780505
1.2666666666666666,0.01758168824017,0.02476314269006,9.7399263381958,0.005437278729817224,-0.0016849417101726845,-0.00048236989632490266
1.275,0.01396248675883,0.05605682730675,9.71035003662109,0.0064078298182450024,-0.0005145577026000386,-0.0012034658518499757
1.2833333333333334,0.00122293981258,0.04009167104959,9.71234321594238,0.007122220700064213,0.00031405453940986066,-0.0015503788642011135
1.2916666666666667,0.00312555255368,0.02097928896546,9.761962890625,0.007666283184672741,-0.00011489254700561215,-0.0017493171276672282
1.3,0.00129466457292,0.02893324941397,9.76189231872559,0.007097632753210845,-0.0034311296235591464,-0.0009611633155481504
1.3083333333333333,0.01252462808043,0.03861819952726,9.75446033477783,0.007666283184672741,0.0003994416217120211,-0.0017515525965294812
1.3166666666666667,0.02164450287819,0.03175146877766,9.73438262939453,0.007809787515981869,-0.0011493726028395082,-0.002660410544015823
1.325,0.00164515385404,0.02525668777525,9.76011848449707,0.006923282046486641,-0.0008605764493840538,-0.0018887977190541608
1.3333333333333333,0.01264622621238,0.04234483093023,9.76176357269287,0.007665837417279279,0.0004016768955185457,-0.001351440470698021
1.3416666666666666,0.02180904150009,0.01344019547105,9.73640060424805,0.006435994307218602,0.0005773685779727751,-0.00020698541821797097
1.35,-0.00022173812613,0.02310368232429,9.73999786376953,0.0066358265761775346,0.00028276086866486965,-0.0019799964222269994
1.3583333333333334,-0.00941314175725,0.04218031466007,9.76546859741211,0.007497744618968175,-0.0016791300893016575,0.0002894666575752426
1.3666666666666667,0.01457034144551,0.02276034653187,9.77112674713135,0.007923786415096742,-0.0007228843891317159,-0.0031772042356268976
1.375,0.01829697191715,0.019706081599,9.76748561859131,0.006836106693124542,0.0006028505953375381,-0.0009231638558927866
1.3833333333333333,-0.0019453195855,0.02897609584033,9.72714424133301,0.0070091154163307,-0.0020157606730945893,-0.004057450236263199
1.3916666666666666,0.01475631538779,0.00777514046058,9.74381732940674,0.007610402054713615,-0.0003062310810871119,-3.1293686999940475e-06
1.4,0.02572162263095,0.02858276106417,9.74543380737305,0.007982797279485419,-0.002470413245738829,-0.0036546559639157824
1.4083333333333334,0.01127262506634,0.03662971779704,9.75636196136475,0.007122667507754895,-0.0004032415351681299,-0.002005031306808201
1.4166666666666667,0.02232388593256,0.02067885361612,9.74918746948242,0.005349208720776369,0.0005170164127611917,-0.0007215431208180097
1.425,0.00576519127935,0.03019930236042,9.74545478820801,0.0063242320473003485,-0.00269706932052484,-0.00279407964456888
1.4333333333333333,-0.0012803588761,0.01241018250585,9.74931049346924,0.007266618646754875,-0.0007121549578267516,-0.0010313506139880259
1.4416666666666667,-0.00675969291478,0.02766008302569,9.75100421905518,0.0069523401508416035,-0.0011471372640144077,-0.0020591249459302992
1.45,0.01716682314873,0.01729557476938,9.75108432769775,0.00712400845097572,-0.0010577267018643578,-0.0013438405787668784
1.4583333333333333,0.02087199501693,0.02313229441643,9.72721576690674,0.0062388439247011455,-0.002606764232733363,-0.0019361853417006081
1.4666666666666666,0.0229320153594,0.02937672659755,9.75095558166504,0.007036386810071547,0.001207265927852612,-0.0004403469568214748
1.475,0.0191767718643,0.02819650620222,9.75830173492432,0.007066339049956478,-0.0011203141083730903,-0.0023161800682920983
1.4833333333333334,0.01014960650355,0.02149428613484,9.76570415496826,0.007723058970310447,0.00011243375557110809,-0.002008607848928432
1.4916666666666667,0.01194503810257,0.0237975679338,9.7492094039917,0.006495452499446567,-0.0019478087134798146,-0.0017967048803510025
1.5,-0.00257502356544,0.0332893319428,9.73449039459229,0.007151726132258465,6.0352121527737556e-06,-0.0003768654798011732
1.5083333333333333,0.00117306620814,-0.00090841104975,9.73485469818115,0.008352957945655036,-0.0010684561331691475,-0.003547810409115499
1.5166666666666666,0.01397671643645,0.03651524707675,9.74359703063965,0.008328368958504275,-0.0029416068055403096,-0.0008194476454105964
1.525,0.00695971632376,0.03216633573174,9.78759956359863,0.006809730995359665,-0.0016616950966515985,-0.0019129385981423695
1.5333333333333334,0.00346912886016,0.01228143181652,9.76219272613525,0.007238454677929884,-0.0005999447849020246,-0.0013751344120583968
1.5416666666666667,0.02726663649082,0.02755990438163,9.76017570495605,0.006607662607352718,0.0007199784486590501,-0.0005530042300205623
1.55,0.02171603031456,0.03550671413541,9.76925277709961,0.006548203894976143,0.001774575676168162,-0.0012445946558234328
1.5583333333333333,0.01236726529896,0.03748805075884,9.73627853393555,0.005833815093751541,0.0005970389094479349,-0.001924561969921576
1.5666666666666667,0.01243859808892,0.00162371841725,9.76232051849365,0.006494111556225742,-0.000774295296570499,-0.0016885181222557632
1.575,0.00331180077046,0.01296810619533,9.74939727783203,0.008296628447559228,9.321050811553388e-05,-0.00046404076814469855
1.5833333333333333,0.01612250879407,0.02680885605514,9.77669906616211,0.006923281526338033,-0.0005145576375814626,-0.0014323568753496312
1.5916666666666666,0.00153776467778,0.0218662545085,9.77861022949219,0.006295620230487459,-0.0007599895832197826,0.0008581177067135254
1.6,0.0014661870664,0.05692949518561,9.75807189941406,0.006609897686103514,-0.0012580062986625804,-0.0012276068609755114
1.6083333333333334,0.03097908198833,0.02663001604378,9.77668571472168,0.0072684079581122095,-0.0013697695988780505,-0.0009128817524272863
1.6166666666666667,0.01461325772107,0.01600090973079,9.76036167144775,0.007149044245816987,0.0013082997317447162,-0.0028454906170264143
1.625,-0.00206717150286,0.03813180699944,9.7271728515625,0.005493160379924959,-0.0003397600906572036,-0.0005458513408358289
1.6333333333333333,0.01266768481582,0.020492894575,9.7438383102417,0.0053787146731192285,-0.0001327746561846322,0.0005974859772130947
1.6416666666666666,0.01086516864598,0.02477744780481,9.76028347015381,0.007122668027903503,0.0006909200842297844,-0.0007242254623895195
1.65,0.01818252727389,-0.00973501894623,9.73320960998535,0.005893272245682115,-0.0006576145760327228,-0.0011158435607600413
1.6583333333333334,-0.00013608507288,0.02188772335649,9.73835849761963,0.006951893343150923,-0.0010013981140287896,-0.00145828602549813
1.6666666666666667,-0.00922001432627,0.02424098551273,9.73652172088623,0.007780728891478298,0.0004642642370087023,-0.0004948873711248788
1.675,0.02740254066885,0.0234613250941,9.76396656036377,0.006293831439278735,-0.0006003917876484337,-0.0012311831430212633
1.6833333333333333,0.0071957600303,0.04349643737078,9.71613597869873,0.006894224462280289,-0.0006656615357288507,-0.002661752007385258
1.6916666666666667,0.01467068772763,0.02436970174313,9.75298881530762,0.007238901485620566,-0.0013165702253234237,-0.0015991074300685613
1.7,0.02387619018555,0.0432317815721,9.7472505569458,0.007668518783572147,-0.001315676219830431,-0.0015427789722701455
1.7083333333333333,-0.00522872805595,0.02582176215947,9.77681350708008,0.006552228285084273,-0.0011735133518907396,-0.0014564976244008624
1.7166666666666666,-0.01248171087354,0.03358975052834,9.7712345123291,0.007180784236613426,-0.0009785983732169602,-0.002516906732855306
1.725,0.02608641795814,0.01404103077948,9.76410961151123,0.006464605603882882,0.00031852505451370903,-0.0007219900585458427
1.7333333333333334,0.00042201773613,0.01628702320158,9.76045513153076,0.005495395458675756,-0.0022258755006490548,-0.00021905582525278748
1.7416666666666667,0.01148746535182,0.04775238037109,9.74907493591309,0.007149937861198348,0.0003373012504588984,-0.002496789723726617
1.75,0.02068602107465,0.02276749908924,9.75302982330322,0.006467288010472968,-0.002465942828162932,-0.002220958015308173
1.7583333333333333,-0.00655200425535,0.0158578529954,9.74949645996094,0.008124064971597924,-0.0005199222882152813,-0.002549094571639817
1.7666666666666666,0.01171655580401,0.04210161790252,9.74182319641113,0.006837447116196584,-0.000744789864376248,-0.0016312952688528981
1.775,0.02826088294387,0.02590759657323,9.71637153625488,0.007094950866769367,-0.001204807185182258,-0.0019147269992396373
1.7833333333333334,-0.00082257692702,0.00861917622387,9.75875282287598,0.006951893343150923,3.9117116876963984e-05,0.00025146716541050334
1.7916666666666667,0.01194524765015,0.02007087692618,9.74761581420898,0.007753906906171525,-0.0011431139142034957,-0.0014006162343674319
1.8,0.01932701095939,0.02046427130699,9.72745704650879,0.00563889874968749,-0.0019361850816263038,0.0002939371726789164
1.8083333333333333,-0.01896218582988,0.01707383617759,9.72206592559814,0.007900092083624912,-0.0030238644134872243,-0.00030131353072747916
1.8166666666666667,0.00874077435583,0.02523523010314,9.73109245300293,0.008124959627276503,-0.0006871200082269737,-0.0018047518400471304
1.825,0.02158746123314,0.04635752737522,9.75277423858643,0.006410065417144581,-0.0018324690011812658,-0.0015669197213212022
1.8333333333333333,-0.01661612279713,0.01012844312936,9.7514762878418,0.007784305953747137,-0.0021418298817165037,-0.000993351219351238
1.8416666666666666,0.00548612093553,0.03100761771202,9.75484561920166,0.005954070860982124,-0.0025450712218289054,-0.0010183861039324397
1.85,-0.00166661245748,0.03682283684611,9.74379539489746,0.006323784719461059,-0.0018378336843244603,-0.0023394270719246405
1.8583333333333334,0.00038625352317,0.02298208512366,9.76595497131348,0.00615345684239916,-0.0019996667537023334,-0.0007644601308330063
1.8666666666666667,0.04087849706411,-0.00039340637159,9.75156402587891,0.00649657029889627,-0.002698857331510651,-0.002791844045669475
1.875,0.00990624260157,0.01642295531929,9.74405956268311,0.007264831415991978,-0.00047119362482005666,-0.0034360473689743327
1.8833333333333333,0.00631563225761,0.01345451455563,9.75327968597412,0.006292043168218619,-0.00035361870373355937,-0.002921489276262838
1.8916666666666666,0.00808986555785,0.04332476854324,9.75653457641602,0.006577710887616396,0.0009157876278813761,-0.00129913523267319
1.9,0.00249634217471,0.03042819350958,9.71278095245361,0.006836106172975932,-0.00014439801170923835,-0.00166437724316738
1.9083333333333334,-0.0047419546172,0.02975577674806,9.75858879089355,0.005234763534119422,-0.0007506014852472754,-0.002030960586993852
1.9166666666666667,0.00633743731305,0.01355463732034,9.74598598480225,0.007181677851994787,-0.0006772848424893066,-0.0001452921309846084
1.925,-0.0229963902384,0.0301778446883,9.7201623916626,0.00649366474853506,-0.00031472514105742574,-0.0014055338497456406
1.9333333333333333,0.02103667519987,0.02963428385556,9.76588535308838,0.005089024644208109,0.0016029076361083496,-0.0009021523861410726
1.9416666666666667,0.01181649696082,0.00987807568163,9.76618385314941,0.006242420986969985,-0.004230013192075895,-0.0006343679625116365
1.95,-0.00257479562424,0.02830374054611,9.74032783508301,0.0062088916848162135,-0.001721600096570245,-0.00205331319502212
1.9583333333333333,0.01588646508753,0.03458399698138,9.75669193267822,0.007642142565658663,-0.0023072392331401296,-7.689307109547327e-05
1.9666666666666666,0.02527814731002,0.00562928756699,9.73510551452637,0.007183467683500903,-0.0014784035547756016,-0.00016764480403145255
1.975,0.00883359462023,0.03739499673247,9.74202060699463,0.006232137648151364,0.0023731792577750565,-0.0015101439356834966
1.9833333333333334,0.02512099221349,0.03044253960252,9.72928428649902,0.007491932998097148,0.0012591240981124573,-0.0015602140949573567
1.9916666666666667,-0.02070748060942,0.02949117124081,9.75868129730225,0.006923282046486641,-0.00039653577876713227,-0.0009191403760447226
2.0,-0.0206359513104,0.02853269129992,9.78067588806152,0.005464101755421215,-0.00042648827872654297,-0.0007170725732049606
2.0083333333333333,-0.00414864905179,0.0325382836163,9.76959609985352,0.007238006829941986,-0.0005963683728191204,-0.0008891878110669105
2.0166666666666666,0.03619338572025,0.01826836168766,9.74594211578369,0.0065271935305402234,-0.003953734415892465,-0.0020948890667605627
2.025,-0.00745326234028,0.02412653900683,9.74409580230713,0.008440131218422528,-0.0014041926464505106,-0.0020863949092622975
2.033333333333333,-0.01102253142744,0.03209480643272,9.74217891693115,0.006610346054240197,-0.002353732720256781,-0.002420790804415715
2.0416666666666665,-0.01634449884295,0.03622198477387,9.73845863342285,0.008035996002854286,0.00018664451760444685,-0.0035281399476031865
2.05,0.02587876096368,0.01178081799299,9.76621341705322,0.0072393482933112464,-0.0027900557746093598,-0.003505787079500614
2.058333333333333,0.02416230365634,0.02833241038024,9.7312068939209,0.006323784199312449,-0.0025625060844418125,-0.003563457260742769
2.066666666666667,0.00791817158461,0.02523523196578,9.73860836029053,0.006181621331372584,-0.0014511330712949947,-0.00022397340812162103
2.075,0.01718112826347,0.01817537471652,9.72037696838379,0.007613084461303876,-0.002776644521881669,-0.001789104858382708
2.0833333333333335,0.00283980299719,0.01758884452283,9.76621437072754,0.006522275525050732,5.923449173520844e-05,-0.0010653266588140763
2.091666666666667,0.02112964913249,0.0030398957897,9.73343276977539,0.005753344976641829,-0.0024051434326398356,-0.001475720888111037
2.1,0.01595799252391,-0.04255226254463,9.71581363677979,0.005577653846845583,-0.0011601018390885699,-0.0032585674479693634
2.1083333333333334,-0.00566505175084,-0.10968884825706,9.73149967193604,0.006264773334923949,-0.0018472218473155435,-0.0034829876637816654
2.1166666666666667,-0.04390415176749,-0.15014532208443,9.69556427001953,0.00715038466888903,-0.0029049485491799013,-0.007395593145663521
2.125,-0.09338036179543,-0.13892966508865,9.56182765960693,0.0069451870666011415,-0.001671082999568552,-0.010694841939729725
2.1333333333333333,-0.31338751316071,-0.08789413422346,9.43877029418945,0.007816047504989576,0.006735967154799733,-0.011531724707827708
2.1416666666666666,-0.10158467292786,-0.0382748618722,9.48159408569336,0.007290758745620171,0.013147597699233307,-0.011035942941098555
2.15,0.00183828058653,-0.03275286778808,9.54177093505859,0.006916577330382861,0.013889258934495973,-0.011270647536026692
2.158333333333333,-0.27776628732681,-0.00271063507535,9.50330257415771,0.00684728312717574,0.019738047547446676,-0.013432145018437988
2.1666666666666665,0.01157340593636,0.08969666063786,9.66261005401611,0.006485170200925339,0.029852616854270014,-0.011449467359955097
2.175,0.24958427250385,0.00776830455288,9.74417591094971,0.00638145464062891,0.024442386374422517,-0.011808451071924906
2.183333333333333,0.00749617954716,0.07006209343672,9.77462482452393,0.0056380051343061285,0.024006508047166007,-0.01243477246485187
2.191666666666667,0.21206033229828,0.19463600218296,9.92822456359863,0.008220181680260428,0.021515978052372795,-0.009583469446731515
2.2,0.04059937596321,0.06065586209297,10.02932929992676,0.008666340225443554,0.013574978878136698,-0.007948150177881771
2.2083333333333335,0.14023864269257,0.04522742703557,10.02221298217773,0.0049003688093003745,0.008528201747611992,-0.00836569846669801
2.216666666666667,-0.90217369794846,0.04153700172901,10.52078056335449,0.00572160342539939,0.011971401160529393,-0.014658858394069114
2.225,2.68598556518555,0.75739306211472,9.6826171875,0.006661755986400338,0.002047278040268513,0.0002112323994392395
2.2333333333333334,-2.30115532875061,-0.24685175716877,10.33875465393066,0.008026161552321128,-0.01994034167996796,-0.0019330559973826894
2.2416666666666667,0.59768438339233,0.42195335030556,9.49049949645996,0.0031045576743678853,-0.006617274434263534,0.0017674228520020048
2.25,0.03972689062357,0.02149429358542,9.55748558044434,0.009400848376465758,-0.006904729384424033,0.003427776745358647
2.2583333333333333,-0.26946187019348,-0.32914537191391,9.54491901397705,0.003075498789790011,-0.006813976968792917,-0.0012919824085072073
2.2666666666666666,-0.17786975204945,0.19352017343044,9.54938888549805,0.004459127229309521,0.0016757772111011587,0.0008429179228514149
2.275,0.63765448331833,0.04295282065868,9.73080635070801,0.01014385055494925,0.0067922956125981504,0.005865108797005907
2.283333333333333,0.00237474380992,-0.51095616817474,9.80599689483643,0.011279810474652218,-0.0036103978156242313,-0.0037226079235303817
2.2916666666666665,-0.11533959209919,0.05566342547536,9.5991792678833,0.0027133861236137403,0.0013735694148065572,-0.0041897781335211255
2.3,-0.13021750748158,0.09564781934023,9.68461990356445,0.008027056207999882,0.004891874781839261,-0.005764745594761369
2.308333333333333,-0.02039275504649,0.0305640976876,9.77901649475098,0.009999004760270689,0.005599112059269402,-0.0073446289808966675
2.316666666666667,-0.25934061408043,0.13433039188385,9.87083721160889,0.005311656588960294,0.003470246362515604,-0.003921546577107953
2.325,-0.02272458188236,0.39824885129929,10.01291465759277,0.006485618048913237,0.00391819343883315,0.0015684845885360645
2.3333333333333335,0.15661150217056,-0.03918327391148,10.05666160583496,0.010507304424420475,-0.002845043809335733,0.0025104246403740405
2.341666666666667,0.09279381483793,-0.06351007521152,9.87945556640625,0.004428727661585125,-0.010006380468133316,-0.0002619729002863603
2.35,-0.12322207540274,0.07463283836842,9.63370037078857,0.004772511589692648,-0.010311271841352722,0.0009131052212912901
2.3583333333333334,0.01668043062091,0.07340962439775,9.49813842773438,0.010195261007258,-0.004347140525248798,0.0008907525482444459
2.3666666666666667,-0.04567805677652,-0.22856193780899,9.47940540313721,0.007325629511143377,-0.0005422749612621255,0.001575637282664895
2.375,-0.05759469047189,-0.01142309047282,9.51059913635254,0.004246330515313578,0.006942951987850346,-0.0022629808247744488
2.3833333333333333,0.05910393968225,0.00565074570477,9.71170806884766,0.009163462935393532,0.008232699057532452,-0.003419952929433468
2.3916666666666666,0.17446498572826,-0.12648372352123,9.83658981323242,0.008261980825807145,0.002415872798926224,-0.004200507499807339
2.4,0.01939851045609,0.10689208656549,9.88584423065186,0.003573068567504976,0.0005943565678764251,-0.005042306973023117
2.408333333333333,-0.12080436199903,0.31487530469894,9.8604154586792,0.010099592146583394,-0.00011086907528484844,-0.00231975635033785
2.4166666666666665,-0.0884305536747,0.05202978476882,9.85387229919434,0.009785313130521514,-0.0002673375184108038,-0.0004872874791937362
2.425,-0.15780602395535,0.00373378396034,9.78698444366455,0.004846722237943435,-0.0049184736233750855,-0.0009321048861003087
2.433333333333333,-0.07750820368528,0.14514549076557,9.76437473297119,0.006984976357762621,-0.0020586781382396185,-0.0017014828273670779
2.441666666666667,0.05898234248161,-0.01721689291298,9.83669662475586,0.007132949806276122,-0.003606374205739015,0.0012296184058437276
2.45,0.14029586315155,-0.11988879740238,9.77435302734375,0.004961615272588455,-0.005283268956215747,-9.92457035056419e-05
2.4583333333333335,0.05182955414057,0.07393888384104,9.65200424194336,0.006595145750229302,-0.006630686467214312,-0.0009177993027867446
2.466666666666667,0.01444874703884,-0.04769515246153,9.58822059631348,0.009937758296982608,-0.00429707075608622,3.2858373381588014e-05
2.475,-0.04694443568587,-0.16731929779053,9.52625560760498,0.007494615404687234,0.00022464399351458574,-0.0024941070570620527
2.4833333333333334,-0.06267321109772,0.06883896142244,9.59541034698486,0.0046218552144404535,0.0046057607748995885,-0.0045630674938229
2.4916666666666667,-0.02851123176515,0.14340734481812,9.74425315856934,0.006935352616067986,0.006802130063131305,-0.0026376111282970485
2.5,0.02829675935209,0.04246651381254,9.89251899719238,0.008511659980231663,0.0057010398686543244,-0.001483768107881469
2.5083333333333333,0.03302448615432,0.11016811430454,9.95175647735596,0.005838732058943815,-0.0013469699230847971,-0.0017931283382307715
2.5166666666666666,0.00369801977649,0.13337190449238,9.89825439453125,0.005957201635709065,-0.002739092129991116,-0.0006929317591351531
2.525,-0.08312318474054,-0.04904704540968,9.8319616317749,0.006955469885271153,-0.00133355828024565,-0.0005914507574409115
2.533333333333333,-0.07574860751629,-0.05406118556857,9.72218036651611,0.003898970305160128,-0.0036653853302019953,-0.001342499245434596
2.5416666666666665,-0.08516889810562,0.05082095041871,9.63240432739258,0.00807757200462988,-0.004119143767316266,-0.00199787861267937
2.55,0.02547842636704,-0.03308905288577,9.6869592666626,0.007562120296537023,-0.0039367461008959345,-0.0007112609523339333
2.558333333333333,0.09930291771889,-0.0833163112402,9.69148731231689,0.00763722508031778,0.00014819797392932277,-0.004611348731850884
2.566666666666667,0.05290957912803,0.03994147479534,9.70030689239502,0.005143564830946409,0.0018747156046044257,-0.002880360602326532
2.575,0.04720146581531,0.05301686376333,9.69275188446045,0.007837952004955469,8.561059992996542e-05,-0.002092653727935462
2.5833333333333335,-0.00937022455037,0.01518548559397,9.70813179016113,0.0077521175948140186,-0.00016675066850130757,-0.004694053407562784
2.591666666666667,-0.05933283269405,0.12604740262032,9.74095630645752,0.0058083324912194196,-0.0002785138549342258,-0.0007152843021448451
2.6,-0.051858112216,0.10521832108498,9.77611923217773,0.006488747263194179,0.0020356546684894812,-0.0013094175311944185
2.6083333333333334,-0.05688656121492,-0.01447020098567,9.81312084197998,0.005429678837886082,0.0024169905983759264,4.247000523737344e-06
2.6166666666666667,0.02891894429922,0.01382644567639,9.90962028503418,0.006182291802982997,-0.0012244773866202658,-0.0010215153832317824
2.625,-0.00962060689926,0.04431186243892,9.85780334472656,0.008158935216972345,-0.002130206249862993,-0.00044124099482366835
2.6333333333333333,0.02394050918519,-0.05154334753752,9.77900123596191,0.007079303234919184,-0.005055272198283213,-0.0009289755417823899
2.6416666666666666,0.01505674887449,-0.0381604321301,9.68170356750488,0.005875837383069208,-0.004365022975775299,-0.00016228013714285883
2.65,-0.01438436750323,0.05280943959951,9.63241195678711,0.006760554581504319,-0.003876394293286607,-0.003314895905767779
2.658333333333333,-0.02670140005648,0.01484931912273,9.63314247131348,0.008523284782419718,0.0007731776921765248,-0.0021570295355414623
2.6666666666666665,0.0245342515409,0.01246740482748,9.65148162841797,0.006489194070884859,0.0015953077441773818,-0.0024216849399458598
2.675,0.05517702922225,0.09915985912085,9.74507617950439,0.006228114818489236,0.0028524197772726648,-0.0025186950039154214
2.683333333333333,0.0020171017386,0.07269434630871,9.78591156005859,0.006288020338556492,0.001889915388466711,-0.0014801915657614126
2.691666666666667,-0.00511428248137,0.00974217243493,9.82191181182861,0.00640380646843409,0.0016583420884139475,-0.001820845629402234
2.7,-0.04757355898619,0.04638618603349,9.80659770965576,0.006354631094876136,-0.0013755812197490777,-0.0019066799095063573
2.7083333333333335,-0.06373891234398,0.00212438753806,9.76717281341553,0.005637110998776158,-0.0004756641074145297,-0.0003706066936373839
2.716666666666667,-0.05607856810093,-0.05413983389735,9.76823616027832,0.00718235040419981,-0.0006893553470520744,-0.002170888506220074
2.725,0.00412003742531,0.00805410090834,9.8128137588501,0.0061556924412985645,-0.001944679369161721,-0.001587037250598674
2.7333333333333334,0.00782520975918,0.02402639947832,9.75940322875977,0.007529932457752512,-0.0024078260993044003,-0.002440907813544578
2.7416666666666667,0.02837532758713,-0.01950580254197,9.74375247955322,0.0077574824079943636,-0.0018861154425010524,-0.001816822279591322
2.75,0.0282394234091,0.02776018343866,9.69339656829834,0.008674387965362594,-0.002284439557346876,-0.0018990801476125412
2.7583333333333333,0.00987807568163,0.07023376226425,9.67977809906006,0.005726074623198375,-0.0018360455433014968,-0.0020166546785874073
2.7666666666666666,-0.03192313760519,0.04139350354671,9.69137287139893,0.007779165324635132,0.0008963408953071977,-0.0010997497714049377
2.775,-0.00266801053658,0.04486263170838,9.7352409362793,0.00609399969046841,-0.0001551272967222756,8.382239388842609e-05
2.783333333333333,-0.02095067687333,0.04765939339995,9.76451015472412,0.006033199514722576,0.0009126580885075542,-0.0018718097941689124
2.7916666666666665,-0.02438390254974,-7.12884093e-06,9.83139038085938,0.008263993280935427,0.0014048632480980754,-0.0018776214150399394
2.8,-0.00062945019454,-0.0082114636898,9.83887100219727,0.007014927557350337,-0.0021945817973946886,-0.0009830688558114334
2.808333333333333,-0.01344019174576,0.0173170324415,9.80725574493408,0.006385477470291214,-0.0021100887205855214,-0.0009267403329944413
2.816666666666667,-0.0352778211236,0.01455603539944,9.73957538604736,0.009281931992010002,-0.004685112572410989,-0.0017032708383528888
2.825,-0.02386903762817,0.00803979579359,9.73970413208008,0.006674720171363044,-0.003339930920386133,-0.0009428341873681208
2.8333333333333335,0.00193126755767,0.02490619942546,9.72470474243164,0.008016772869181264,-0.0024248138941523226,-0.0013822869761500752
2.841666666666667,0.00385538232513,0.04565659537911,9.72247314453125,0.0076922125948955455,0.0009917864821737024,-0.0030180525325418928
2.85,0.02039955928922,0.02308937162161,9.74855804443359,0.007551838518164404,5.118753610290524e-05,-0.0025794941393640384
2.8583333333333334,0.01293949317187,0.04547777399421,9.74080562591553,0.006811518746271172,-0.0011645723867016189,-0.0009642927899033962
2.8666666666666667,-0.0217591561377,0.04570664092898,9.7335090637207,0.006435100691837239,0.0005992741832544594,-0.001812798539668954
2.875,-0.01431283913553,0.01315407827497,9.72684383392334,0.007203137104715999,0.001966808443307584,-0.002656387194205086
2.8833333333333333,-0.03631469979882,-0.00401994166896,9.76019096374512,0.004979050135201362,-0.0007470251381827727,-0.0015973194190827505
2.8916666666666666,-0.04547062143683,0.01766037009656,9.81838607788086,0.005574524112416034,0.0010740441551390187,-0.0027900560346836648
2.9,-0.01617257855833,-0.00251780077815,9.78580474853516,0.00849646071651816,-2.8164320331509673e-05,-0.002207098914592409
2.908333333333333,0.01857593283057,0.0058009554632,9.79111194610596,0.007529932457752512,-0.0023510503136665206,-0.002469072042443699
2.9166666666666665,-0.01269629597664,0.06250154227018,9.76618385314941,0.00733322940307452,-0.0038813117786274894,-0.003769548478412019
2.925,-0.02135134860873,0.01782492920756,9.7048397064209,0.007675671347663825,-0.003200003651345847,-0.0016308483311250651
2.933333333333333,0.00818285252899,0.02215950749815,9.69924068450928,0.007187937320853888,-0.002896901849558252,-0.0025781531961433873
2.941666666666667,0.01004259195179,0.06147153303027,9.71125793457031,0.008583189262189582,-0.0002771727166578463,-0.001432804073151943
2.95,0.01391943264753,0.03135806322098,9.72653579711914,0.006004141930516224,0.0009627279877072845,-0.0025316594489524316
2.9583333333333335,0.01944858022034,0.01590077020228,9.75066947937012,0.006629343963547485,0.0028454906170264143,-0.0005771450440901951
2.966666666666667,-0.01923416927457,0.01827544905245,9.76166248321533,0.005543230409161667,0.001971279120957785,-0.0017694345269075478
2.975,-0.01570749655366,0.01936273276806,9.79094886779785,0.007955526926041966,-0.0008578941728311202,-0.0020551013360450834
2.9833333333333334,-0.04484117403626,-0.00075820134953,9.76943111419678,0.006840576850626133,-0.0011645723867016189,-0.0009929042166048287
2.9916666666666667,-0.02297507040203,0.03883276134729,9.79056739807129,0.008551224047027585,0.0010349270910896804,-0.001818163482886278
3.0,-0.02140151895583,0.06042717397213,9.738844871521,0.007891598056163797,0.0013351228873860331,-0.0030225234702663984
3.0083333333333333,0.00066532840719,0.03045681118965,9.75778770446777,0.007151726132258465,0.0001535626245631416,-0.0008927642881683907
3.0166666666666666,0.00974217243493,0.03791721910238,9.73381042480469,0.00621157357125769,-0.0015275790583707083,-0.0027051157600723593
3.025,0.01896218582988,0.04758071154356,9.73178577423096,0.00650081679247813,-0.0027618915457100646,-0.003178544918773245
3.033333333333333,-0.00261794053949,0.0207503978163,9.74336624145508,0.006607215279513254,0.0004754405735321244,-6.571674676317603e-05
3.0416666666666665,0.01746724173427,0.01891211606562,9.71226596832275,0.007583578508960842,-0.0010586209024129043,-0.001996090471656407
3.05,0.00289690145291,0.02541405148804,9.73413276672363,0.006575027960877526,0.0016686242568980235,-0.0009088581425420702
3.058333333333333,-0.0373951382935,0.00190267281141,9.73467445373535,0.006813307537479896,-0.001475273950383204,-0.0006173797775522582
3.066666666666667,0.00128754414618,-0.00337614049204,9.79338073730469,0.00820945205389991,0.0004763346440435187,-0.0004390057535263446
3.075,0.01391943264753,0.02537828683853,9.81840038299561,0.008072879223505948,-0.0018051989078121157,-0.0024167669344561946
3.0833333333333335,-0.02997756563127,0.03383294865489,9.7669849395752,0.006785590896494369,-0.002062701358013204,-0.001984467099877375
3.091666666666667,-0.00777514046058,0.02352569997311,9.76719284057617,0.005641134348587069,-0.002181617352357679,-0.002125735702249944
3.1,-0.02612218260765,0.05428292602301,9.73358821868896,0.007533510040170134,-0.003139204515897055,-0.0012293950019984744
3.1083333333333334,0.01256754528731,0.05288812145591,9.71527767181396,0.00749908608233761,-0.0011556312914755206,-0.00039295930166547745
3.1166666666666667,0.02019959688187,0.01871899329126,9.71419143676758,0.006809730995359665,-0.0001207042491498158,0.00025459652598302265
3.125,-0.00721721863374,0.01584354788065,9.73260879516602,0.007127584993095777,-0.0016388952908211929,-0.0026192818700796925
3.1333333333333333,0.00020743244386,0.02188054658473,9.7288179397583,0.007497297811277495,-0.00044928798702899693,-0.0012016777108270124
3.1416666666666666,-0.0399271696806,0.00605845777318,9.74205017089844,0.009161004712871613,-0.0021418298817165037,-0.0020130786566159597
3.15,-0.00507813878357,0.02734523452818,9.75071430206299,0.007098527408889599,-0.0016429187706692569,-0.002990783219395655
3.158333333333333,-0.01962740160525,0.03333224728703,9.75060558319092,0.006725685376427114,-0.0009316578833538997,-0.000623191528460263
3.1666666666666665,-0.03593588247895,0.01924830116332,9.75644207000732,0.007753905865874133,-0.000303548837043379,-0.0010313506139880259
3.175,0.00604415219277,0.04987677559257,9.77586936950684,0.0061302103589152245,-0.002527189031376534,0.00010975143838167341
3.183333333333333,-0.01936289481819,0.04044935107231,9.7486515045166,0.006697967174995587,-0.001339369901116677,-0.001248171197943664
3.191666666666667,-0.01359755452722,0.01551451627165,9.75471115112305,0.007565250030966572,-0.00434043502892193,-0.0011860309892370688
3.2,0.01774620264769,0.0362577624619,9.74506187438965,0.006838788579566018,-0.0006281090788198958,-0.0016572244190013968
3.2083333333333335,-0.00036479497794,0.01677341759205,9.7546968460083,0.007159773352028896,-0.002539259340883574,-0.0012070423939702065
3.216666666666667,0.01810384355485,0.01264622434974,9.70348834991455,0.00767231898961211,-0.001493603078563408,-1.654095160017163e-05
3.225,-0.03108618035913,-0.00076535233529,9.74416160583496,0.0072661713189154115,0.00018664451760444685,-0.0005793803178967198
3.2333333333333334,-0.00932038668543,0.03482004255056,9.74699211120605,0.007810682691809231,-0.00028209029952650536,-0.0016621421644165836
3.2416666666666667,-0.01102253142744,0.01925545372069,9.7601900100708,0.006875000288310049,-0.002998382851252494,-0.0012580062986625804
3.25,-0.01455603539944,0.04001300409436,9.76339435577393,0.006755636576014828,-0.0018753860762148386,-0.003102098931697357
3.2583333333333333,-0.00894820690155,0.04396852478385,9.75048351287842,0.00710031515980093,-0.0016979061552096948,-0.00018552688070109732
3.2666666666666666,-0.00135188736022,0.02469876594841,9.76192092895508,0.006803919374488812,0.0009797161076480867,-0.003592515625172035
3.275,-3.73013830184937,0.16144254803658,11.33065605163574,0.009070475961160404,0.023243834887021596,-0.02136241352601617
3.283333333333333,-10.29915332794189,0.02431185171008,22.04755592346191,-0.004971677548230562,0.5672091037127823,-0.03282353325603768
3.2916666666666665,25.76106643676758,2.02807426452637,15.63241577148438,-0.01098810903090986,0.12020867505242548,-0.026273736145745404
3.3,-5.44706439971924,1.55604076385498,16.82960510253906,0.029378297461153897,-0.15556763961535394,-0.018144083217196186
3.308333333333333,0.06369717419147,0.80512738227844,11.42545795440674,0.011103672537165118,-0.12581807461170255,0.01850507678355106
3.316666666666667,-1.3256356716156,-0.37027263641357,8.11915302276611,0.016468530450237672,-0.2396084648580097,-0.007058741238619945
3.325,-5.04625463485718,0.50333350896835,6.93944644927979,-0.022494356857840663,-0.18351606716189287,0.00996056057351908
3.3333333333333335,-3.84005212783813,1.21085035800934,6.29370355606079,0.013414935380190639,-0.13033375552317605,0.020792646855550396
3.341666666666667,-3.7445969581604,-0.38301938772202,7.92119550704956,0.007964020433354469,-0.023449254072634602,0.04058098653570769
3.35,3.58541917800903,-0.5113799571991,10.30633163452148,-0.002542835883003805,0.013618342630823801,0.0372119962105949
3.3583333333333334,4.70285511016846,-0.10913797467947,10.09198474884033,0.0108725455246546,-0.05904583086144702,0.020335309275572852
3.3666666666666667,2.12645959854126,-1.22170162200928,7.94937944412231,0.014289370800253129,-0.08026564459465708,0.005872261881246369
3.375,-0.40350010991096,-0.62283968925476,8.01500415802002,-0.006552899276843295,-0.041863806265663495,-0.003413695021020544
3.3833333333333333,0.99486744403839,0.03485580533743,6.59659481048584,0.006603191929702517,0.004528420392219251,-0.010596042824477136
3.3916666666666666,-2.3623046875,0.09765770286322,7.05308866500854,0.011350444580782774,0.022815559052439448,0.0005657452061935685
3.4,-3.18915200233459,-0.92140567302704,8.88832664489746,0.006934459000686624,0.09430689512599086,0.0004700759879168816
3.408333333333333,-0.45696014165878,0.54035305976868,11.12831592559814,-0.0003679243845750749,0.11646504454096583,0.0008460472671693338
3.4166666666666665,1.01122331619263,-0.31805428862572,12.07474422454834,0.010790287136484774,0.06563203213548391,-0.005627052364174486
3.425,-0.26017698645592,0.15284894406796,11.90237426757812,0.004724677159355345,0.034124206568270116,-0.014059810475477604
3.433333333333333,1.15486943721771,0.54608380794525,11.51597690582275,-0.003352895625497448,0.010203307706879824,-0.004899251009850672
3.441666666666667,0.91106200218201,0.8788782954216,10.93307685852051,0.01347439357241843,-0.04680329597510972,-0.00022129113156868732
3.45,-0.25687584280968,-0.3486593067646,9.64328861236572,0.011166706231215922,-0.04891874885868965,0.005270975763012063
3.4583333333333335,-0.15979513525963,0.22382262349129,9.02684307098389,0.001222018643949912,-0.06402689501222285,0.0005688746155302381
3.466666666666667,-0.58827763795853,0.4684554040432,9.24005889892578,0.004776087611664271,-0.034987686617457915,0.006510204955469389
3.475,0.48534899950027,-0.18368500471115,9.04245281219482,0.009665951498821077,-0.02191810081281258,0.011839520591110932
3.4833333333333334,1.04983401298523,-0.01658262126148,9.0457592010498,0.00166460077704996,-0.03614823396386565,0.010678524876566519
3.4916666666666667,-0.20820264518261,0.28595262765884,9.26567554473877,0.008122724548525705,-0.03289726744812465,0.010571231733852644
3.5,0.21094417572021,-0.601547062397,8.59165859222412,0.00985192440698994,0.0015278028523275922,0.008090089381901904
3.5083333333333333,-1.09987103939056,-0.40321308374405,9.03819561004639,0.0009725631534447771,0.008441025353952499,-0.0025370242621327774
3.5166666666666666,0.91981667280197,-0.07415409386158,9.14088344573975,-0.00031204283199511674,0.039834860344429866,0.0004875110455855169
3.525,-1.23148345947266,-0.10716389119625,9.63903522491455,0.009779055742257198,0.017511728099924462,-0.009213310861156511
3.533333333333333,0.00210645818152,-0.35201594233513,9.71469593048096,0.0023074626369855573,0.05187041351860854,-0.0032706382776250117
3.5416666666666665,0.5766270160675,0.2761707007885,10.08635330200195,0.005550607157321687,0.03975416656340042,-0.0004935462003389494
3.55,0.43409889936447,-0.02886172197759,10.14552116394043,0.01137056289028316,0.016328824764522333,0.0013033822464038338
3.558333333333333,-0.58929407596588,-0.02333274297416,10.04847717285156,0.007299253293229894,0.0175711831712606,-0.0037722308850021047
3.566666666666667,0.42296195030212,0.28778764605522,9.62866497039795,0.001117855365702562,0.017925695685431252,-0.0037141138960692694
3.575,0.00777514046058,0.41648858785629,10.11159515380859,0.009922782177040056,0.0020957832022905332,0.0005945801017590049
3.5833333333333335,-0.02750268206,0.01161621697247,9.6399507522583,0.0039736280211759,0.002235486807411262,0.00400268664567947
3.591666666666667,-0.15772734582424,0.32707089185715,9.59935092926025,0.003629397285377696,-0.006514451969199858,0.00688707033774261
3.6,-0.23989920318127,0.234913662076,10.17328071594238,0.006934905288228696,-0.0007962008368337817,0.010361563974063162
3.6083333333333334,-0.04765939339995,-0.16057416796684,9.89156627655029,0.007798611081930669,0.009210850558040155,0.016474118927337578
3.6166666666666667,0.81623238325119,0.03085021115839,9.64003658294678,0.00019603263183172923,-0.005511266234296888,0.012371961394423408
3.625,-0.4836540222168,0.20233990252018,10.04076766967773,0.007249183784141793,-0.010903616084137844,0.012090317544985324
3.6333333333333333,-0.0711493268609,-0.28313812613487,9.41300582885742,0.005360833002815641,0.0004369940461116006,0.013295125380353344
3.6416666666666666,-0.36064663529396,-0.19726790487766,9.59270000457764,0.00356524527172858,-0.005725404151587962,0.003644820733159539
3.65,-0.33003175258636,0.04479106515646,9.7313060760498,0.005583911755258508,-0.00044928792201042085,0.004149319671120929
3.658333333333333,0.26480540633202,-0.27559188008308,9.67239570617676,0.009562234898227256,0.00900699493927031,-0.00012249244706405494
3.6666666666666665,0.18861331045628,-0.22190265357494,9.60711193084717,0.000628779680467461,-0.002694833721625435,-0.0073209351695734445
3.675,-0.28320240974426,0.10309424251318,9.73159313201904,0.00405946295146596,0.010079028589838331,-0.007026775503309339
3.683333333333333,0.79306429624557,-0.02338264323771,9.56636238098145,0.006853095268195375,0.004533785725548207,-0.002609893967162739
3.691666666666667,0.05392528325319,-0.12193451076746,9.85580921173096,0.00422755444940554,-0.008336639842194439,0.0006167093059418453
3.7,-0.44798970222473,0.3424137532711,9.69281005859375,0.004591901934258129,-0.017061768308404154,-0.0015333909393160394
3.7083333333333335,-0.04675070568919,0.1735135614872,9.58106708526611,0.007677013851330652,-0.0021878763010679957,0.004140378835968961
3.716666666666667,0.67539286613464,0.09073381125927,9.6111888885498,0.00525622226669185,-0.018785601273093436,6.191680079751746e-05
3.725,-1.16136407852173,0.24992752075195,10.10700130462646,0.006106517587889219,-0.015777834420039074,0.00010841030823241947
3.7333333333333334,0.67045748233795,0.31182855367661,9.12546157836914,0.0028488437553012176,0.009276120891287582,0.011065227310116292
3.7416666666666667,-0.75643461942673,-0.08453229814768,10.02140522003174,0.005251751589041649,-0.014954807371690726,0.006508864012248562
3.75,-0.40883505344391,0.09707123041153,9.73037719726562,0.003226602752955975,0.01813491611738144,0.01009333267772447
3.7583333333333333,1.15666472911835,0.05818837881088,9.39849185943604,0.004775194516431518,0.007011352055527497,0.014841034217090019
3.7666666666666666,-0.00876938551664,-0.1314263343811,9.71524906158447,0.0043791054803364905,-0.005757145702830401,0.01652195283752627
3.775,0.04383958131075,-0.08674267679453,9.36414432525635,0.004324117185535812,0.003066111146947536,0.01074290055413537
3.783333333333333,-0.28001919388771,-0.13401530683041,9.49423313140869,0.005375138651147781,0.006630014955306507,0.0117550266040417
3.7916666666666665,0.33314365148544,-0.23184509575367,9.41133880615234,0.006752061074191989,-0.011302387006674349,0.0032860612052582456
3.8,-0.88562911748886,-0.25981271266937,9.30091953277588,0.0023821203530013297,0.009392353308707427,0.00018977387817714072
3.808333333333333,0.4885248541832,-0.09997528791428,9.49740886688232,0.006472652823653313,0.02023561758523594,-0.0050472249785127815
3.816666666666667,0.04478394985199,-0.07510484755039,10.08928489685059,0.007043985661705297,0.005410455184064276,-0.012009177476413807
3.825,0.25635787844658,-0.04425463825464,9.94710826873779,0.005596429132530533,0.0022462164337717803,-0.006415206566405196
3.8333333333333335,0.07353122532368,0.14042460918427,9.66786098480225,0.0059116017639737764,-0.010408728973087446,-0.007109032331033168
3.841666666666667,0.21573689579964,0.12766394019127,9.83646774291992,0.00563174670574442,-0.011127142684568783,-0.002921936604102302
3.85,-0.48856791853905,0.13516013324261,9.74413871765137,0.001426768788361184,-0.0002507965800175386,-0.00409053221057768
3.8583333333333334,-0.56435215473175,0.241973772645,9.63524532318115,0.004160272441252396,0.01614396809535717,-0.0068542130676450775
3.8666666666666667,1.15328145027161,0.34752088785172,9.62760543823242,0.004572232513043035,-0.009492270743558504,-0.00025258481856845323
3.875,-0.47034949064255,0.08554799854755,9.84431457519531,0.0029744653760093633,-0.011023872371517212,0.001085220394134664
3.8833333333333333,-0.49040606617928,0.12719900906086,9.54106998443604,0.004692489320571009,0.002110759582307391,0.005232082167826553
3.8916666666666666,-0.24121531844139,0.17033779621124,9.79772853851318,0.005355914477177367,-0.00038223003290721515,0.004835097955904163
3.9,0.91477710008621,-0.0800331607461,9.45411968231201,0.004700088692353368,-0.010324681273560284,0.012606661828162327
3.908333333333333,-1.31792557239532,-0.17163246870041,9.49200820922852,0.0037308785471462423,0.0008201181170210093,0.013833821491335701
3.9166666666666665,1.29756152629852,-0.0497909411788,9.19789791107178,0.0070189514273098575,0.004563737965433313,0.019417958470959767
3.925,-0.69491672515869,-0.38569650053978,9.19626712799072,0.009648516116059387,-0.05198776737651853,0.007373464981777898
3.933333333333333,2.32655668258667,-0.36347115039825,7.46279287338257,0.003071028632288418,-0.03139606434759294,0.022788288698995993
3.941666666666667,-1.81868231296539,-0.54075258970261,7.42576932907104,0.012428961364129455,-0.09385827731798858,0.0128178962756868
3.95,-1.61011922359467,-0.91000616550446,7.12979650497437,0.007963126817972933,-0.02071374030528385,0.014054219917782919
3.9583333333333335,-0.08215039968491,-0.93155765533447,7.51174402236938,0.0057591565975128566,0.013766764967622594,0.003725066926275215
3.966666666666667,0.31514036655426,-0.81436103582382,8.31518077850342,0.006474888422552719,0.03377550931601092,-0.006501935632225225
3.975,0.59088772535324,-0.40230312943459,9.20829772949219,0.008141054066817366,0.038710074258034875,-0.014296300220573857
3.9833333333333334,0.81317377090454,-0.28948473930359,10.00904083251953,0.004620513230922409,0.03773058025386052,-0.016395209256179027
3.9916666666666667,0.46429964900017,0.1449680775404,10.11382484436035,0.009210851598337372,0.028919617897658137,-0.02117599641089984
4.0,0.05389425903559,0.2749782204628,9.94278240203857,0.006823589315852516,0.02487244943976756,-0.015338379550662336
4.008333333333334,-1.65695893764496,0.46527826786041,10.00506591796875,0.008555918908746128,0.02736923994371709,-0.02144020279698162
4.016666666666667,-18.46420478820801,0.46084189414978,19.65789031982422,-0.006974026188374373,0.39059977839044197,-0.0923133026682279
4.025,17.73893356323242,2.82919859886169,23.24381637573242,-0.037691073923564876,0.7139950195678706,-0.10124194969688212
4.033333333333333,21.99575996398926,4.60803937911987,17.60108184814453,0.02230860345240231,-0.20993194536963206,-0.07902774906333937
4.041666666666667,-12.03895092010498,2.74880027770996,11.62504005432129,0.026017363198338587,-0.40132166493910104,0.007745416519750847
4.05,-0.87324887514114,1.50649690628052,4.79937028884888,0.022824064523170824,-0.28076528923923044,0.0720003244145143
4.058333333333334,-4.79398441314697,-1.21233367919922,4.06904411315918,0.007058517574700387,-0.27950997496990804,0.06903568932784888
4.066666666666666,-5.49979257583618,0.01653334870934,3.78620886802673,-0.03591979299898565,-0.15581306655456154,0.07365864985817155
4.075,-4.2522292137146,-0.27449089288712,3.98705554008484,0.03373750725561217,-0.08488682829718971,0.0831515957546783
4.083333333333333,-4.84037494659424,-2.54257750511169,7.48747968673706,-0.00727913654417551,0.028701677693732493,0.0869531084079551
4.091666666666667,2.29523897171021,-1.56614983081818,12.73057079315186,-0.009117642000481905,0.1199462871060254,0.06796924311408355
4.1,9.45010566711426,-2.09995126724243,12.25583839416504,0.029207520175657926,-0.009118534575566047,0.039391831013527674
4.108333333333333,2.50196933746338,-2.57072520256042,8.88551712036133,0.015229521800808077,-0.10198031943148501,-0.01190009710293721
4.116666666666666,0.50380474328995,-1.09498226642609,7.45431709289551,-0.0014073218607312773,-0.06406533607808244,-0.03282037491343238
4.125,1.61698949337006,-0.17460353672504,5.47056818008423,0.02298096632326864,-0.04522027141127443,-0.04063485312994375
4.133333333333334,-3.62941789627075,-0.71369904279709,5.58126831054688,0.007570168036456063,0.012144410924032945,-0.04125045113829385
4.141666666666667,-2.81367421150208,0.19045270979404,7.18257284164429,-0.0007886012699955199,0.12495372071278207,-0.047436774613466196
4.15,-0.56165653467178,0.62416565418243,10.7153844833374,0.0030741583667179685,0.15698996737453805,-0.04268326093308101
4.158333333333333,2.40125036239624,0.50969660282135,11.882155418396,0.0005192517515862923,0.11090997346792637,-0.043039105027796835
4.166666666666667,0.3248228430748,1.23437333106995,12.28790378570557,-0.007691542643433741,0.02994873200248652,-0.04035768880068291
4.175,-0.01475064828992,1.353670835495,11.30134868621826,0.006837000828654511,0.051168537413318144,-0.013107585784449488
4.183333333333334,1.11997783184052,0.51886010169983,10.17313766479492,0.005607158758891051,7.75636483611378e-05,-0.0015780960253354234
4.191666666666666,-0.82838505506516,0.35676234960556,9.38449382781982,0.004367034390606537,-0.016225330787551027,0.007319817370123742
4.2,-1.16125690937042,0.54021847248077,9.44394874572754,0.004630348721752957,-0.01676358269158592,0.013765870311943842
4.208333333333333,-1.25302791595459,-0.42290470004082,9.98231410980225,0.006178939965079717,0.004506962179795433,0.016299320892774083
4.216666666666667,0.45261043310165,0.18050199747086,10.45791435241699,-0.0008234711252586604,3.5987744113319843e-05,0.010901156821318706
4.225,-0.01447735447437,-0.04664368927479,10.87151336669922,0.00750377990375876,-0.022486304956732407,0.01330071281715603
4.233333333333333,0.55726212263107,-0.37644591927528,9.94572257995605,0.008430296767889197,-0.026613942491435304,0.014646117873026141
4.241666666666666,0.69359236955643,-0.38868597149849,9.41634082794189,0.004406822641470626,-0.04666828619141015,0.005460972541140448
4.25,0.1609204262495,-0.26867520809174,8.93941307067871,0.008465166493115186,-0.0443936761431843,0.00579626192163825
4.258333333333334,-0.5184553861618,-0.40499311685562,8.67389297485352,0.00876648028391697,-0.0323666159561695,-0.0057338981790490745
4.266666666666667,-0.30767953395844,-0.11398055404425,9.01135921478271,0.003974075869163973,-0.013678026567565935,-0.0047047835540719105
4.275,-0.42435669898987,0.08586993813515,9.1562614440918,0.006753849865400714,0.010732173008369459,-0.0009347873577091453
4.283333333333333,0.48183697462082,0.04149364307523,9.29247283935547,0.006274385681983373,0.02313900620861329,0.004326129380589965
4.291666666666667,0.70609992742538,0.07380303740501,9.66478443145752,0.005016602787166045,0.007819623006812415,-0.0002610787972655906
4.3,-0.16221217811108,0.21977110207081,9.32570457458496,0.004496232553434914,0.007989502515737807,-0.004268907047335708
4.308333333333334,-0.18935005366802,0.04960496723652,9.38924407958984,0.0013465228553198121,0.02244830497692826,-0.0011811133738588598
4.316666666666666,0.63075953722,0.20908497273922,9.57154941558838,0.0023975440608574768,0.0015213204997718477,-0.0019992196859373486
4.325,-0.75288677215576,0.06539843976498,9.64093780517578,0.005124341697273386,-0.0005360162076075371,0.0017182470883325943
4.333333333333333,-0.3709035217762,-0.0875363945961,9.78740119934082,0.004046944533896543,0.01734452527595411,-0.0023425562862054074
4.341666666666667,-0.24342554807663,-0.0940312743187,10.10236740112305,0.003359378238127496,0.019568616406657965,0.0012318538747059806
4.35,0.64772570133209,0.00249634217471,9.92389011383057,0.006449854188157278,-0.003860300633968656,0.0031103698153875214
4.358333333333333,-0.44467794895172,-0.14053191244602,9.8274621963501,0.0062160452892051085,-0.002805703146385239,0.0008630352570731583
4.366666666666666,-0.02032122761011,-0.01884774118662,9.76639842987061,0.004481032769572804,0.0037277490727909966,-0.0021476412425130522
4.375,0.16778390109539,-0.03825313970447,9.6218900680542,0.0047228888882952305,-0.0039058997254808577,-0.007645495964007945
4.383333333333334,0.50991904735565,-0.00429170578718,9.39495182037354,0.006072093109907911,-0.01642516461695596,-0.004948426383408626
4.391666666666667,-0.28629970550537,-0.05999070778489,9.6765718460083,0.008085171896561022,-0.02186445476160425,-0.007447004638269663
4.4,0.18988662958145,0.13160493969917,9.35861682891846,0.006067847136474659,-0.015736705225954162,-0.006789390062236941
4.408333333333333,-0.44544330239296,0.00124459469225,9.37853622436523,0.006967093127013033,-0.006355748894325839,-0.0013760282875140627
4.416666666666667,0.17482227087021,0.19500112533569,9.36410903930664,0.00510869510572042,-0.004187543054770329,0.00437508161037697
4.425,0.11706342548132,0.08275123685598,9.34370899200439,0.0038560536202381862,0.005826662009511079,0.006490535534254294
4.433333333333334,-0.07880286872387,0.07292323559523,9.53133487701416,0.006520040966448545,0.005245940488319404,0.007469133322303894
4.441666666666666,0.10386643558741,0.07200767099857,9.51445388793945,0.0032158739068183706,0.010933791987942507,0.007504003047529883
4.45,0.0044991383329,0.08053386211395,9.68846893310547,0.0033392604487757203,0.004154237416536115,0.001794693205445634
4.458333333333333,0.13844327628613,-0.06245147064328,9.65389919281006,0.0024125201808000295,-0.0006929318241537291,0.007017611004237814
4.466666666666667,-0.15462990105152,0.01813242025673,9.75662136077881,0.005097518671669221,-0.0007179666437163549,0.0029226070757125398
4.475,-0.0421797670424,-0.07304489612579,9.86347579956055,0.006502605063538246,-0.0008896348788318956,0.004668794989099002
4.483333333333333,-0.11857279390097,-0.19129556417465,9.82318592071533,0.0064502999555507414,-0.004649794479048319,0.0019203149561909324
4.491666666666666,-0.11350846290588,-0.10785056650639,9.65220355987549,0.005559324328553923,-0.003884441513057039,-0.00035004232415985603
4.5,-0.06021238490939,-0.08164987713099,9.64766025543213,0.0071132793447638105,-0.005535406333162184,0.0038784057081176714
4.508333333333334,-0.06144994869828,-0.16055290400982,9.56209945678711,0.004588772719977362,-0.006619062185175041,-0.0032554377135398135
4.516666666666667,-0.23752444982529,0.00114445481449,9.53210735321045,0.007233537192589003,0.00015937431045274486,-0.0038464420534015005
4.525,0.21920602023602,-0.03270995244384,9.78116893768311,0.006243761930190637,0.004041132913025515,-0.010111885339787078
4.533333333333333,0.10365184396505,-0.04660792648792,9.80752754211426,0.004677289016560115,0.0012729825486422859,-0.009381848386563859
4.541666666666667,-0.02567836456001,0.09717132896185,9.66067981719971,0.004655607140216565,-0.0007143902316332762,-0.00835049816268729
4.55,0.11528272926807,0.06604218482971,9.56418037414551,0.007484333106166006,-0.00031517217631321024,-0.010821358736265408
4.558333333333334,-0.00623012613505,0.09647039324045,9.35656261444092,0.006004141930516224,-0.0003357365782999389,-0.004237612823932733
4.566666666666666,-0.23538576066494,0.10388074070215,9.25979900360107,0.005114506726591448,0.001965914437814591,-0.0013813929706572572
4.575,0.18387834727764,0.11532544344664,9.3134298324585,0.006971563804663235,0.005506572412875563,0.0035422224521642035
4.583333333333333,-0.32700651884079,0.03479142859578,9.32254314422607,0.0062433146023513466,0.010867628039313544,0.004321435039020031
4.591666666666667,-0.00595831824467,0.08048378676176,9.24899101257324,0.0030178293887707696,0.019114855368800476,0.0033710009597207676
4.6,0.09708645939827,0.06230227649212,9.34278297424316,0.003610174671853282,0.03318852572521676,0.0010695738025816978
4.608333333333333,0.48122182488441,-0.00956335105002,9.26365375518799,0.0044917623959333216,0.02422690335272157,0.0024344254609888335
4.616666666666666,0.16111776232719,-0.08575540781021,9.26840209960938,0.004947309624256315,0.02463819529357071,0.00119698375936871
4.625,0.07327372580767,-0.07104919105768,9.3927059173584,0.0028939960391227387,0.02160270763834143,-0.0005579218453985968
4.633333333333334,-0.0046421950683,-0.1609461158514,9.57505989074707,0.0052705284351725985,0.02113285528183508,0.00021972644315495292
4.641666666666667,-0.40188962221146,-0.1173495426774,9.73355293273926,0.004052756414841874,0.027801090239824855,0.0004629230987321482
4.65,0.08855702728033,-0.12473127990961,9.81758975982666,0.003115734108419259,0.0373988627341453,0.0051534003217769565
4.658333333333333,-0.04682963341475,0.00230334862135,10.03732109069824,0.004447503987567467,0.018017789044283018,-0.0031941920304748195
4.666666666666667,0.17165392637253,-0.06288064271212,9.89450645446777,0.006391065947391116,0.00725834828321332,-0.0035174111014655814
4.675,0.01096551027149,0.09237144887447,9.82756233215332,0.007326523646673347,-0.013415605331652267,-0.012073105826143368
4.683333333333334,-1.06794810295105,0.03089312836528,9.95077037811279,0.004470750991200184,0.007812023635030056,-0.008190453104295052
4.691666666666666,0.36837857961655,0.12973827123642,10.00036811828613,0.008161841287482163,-0.003516069638096147,-0.006729931870008975
4.7,0.33206367492676,0.13038885593414,10.06448745727539,0.005610734780862673,-0.02444707603465462,-0.010901827813077728
4.708333333333333,-0.66385537385941,0.11292193084955,9.94642162322998,0.00810171418408996,-0.023655796779332366,-0.0007850245978381368
4.716666666666667,-0.09994667768478,0.0945462808013,9.58947277069092,0.006243761930190637,-0.013328876785980848,0.0012032423179673957
4.725,0.01282508205622,0.16146813333035,9.94275093078613,0.0052888563930184335,-0.019564815160320787,0.0033598247857438727
4.733333333333333,0.14921548962593,-0.06907515227795,9.85629463195801,0.006015317844418813,-0.02367770127929843,0.005568712491545006
4.741666666666666,-0.08128320425749,-0.08116221427917,9.64997291564941,0.006854436211416202,-0.029752253131876866,-0.00435250533842897
4.75,0.38911765813828,-0.01254423893988,9.70389556884766,0.007854046444496332,-0.04004251616923968,-0.0037650785809847306
4.758333333333334,0.11769378185272,-0.17899261415005,9.44569110870361,0.008847844016408217,-0.04917355927955052,-0.00785963336115041
4.766666666666667,-0.69165354967117,-0.15352940559387,9.13722705841064,0.006946081722279895,-0.03133615986782308,-0.003183909731953591
4.775,0.28441849350929,-0.00391260487959,9.3005838394165,0.009715126352230421,-0.01834749046782935,-0.003790559883145157
4.783333333333333,-0.21799004077911,-0.25799590349197,9.38126087188721,0.0068539894037255205,-0.009149828798969023,-0.006190787390890111
4.791666666666667,0.34045386314392,-0.01823259703815,8.90881538391113,0.0038685704773614277,-0.003935852225440094,-0.003463764530108643
4.8,0.20065851509571,0.09882376343012,9.44414138793945,0.0068128596894919975,-0.0029523361718265233,-0.0033117666914870125
4.808333333333334,0.16922195255756,-0.11940240859985,9.48405456542969,0.009781737628698675,-0.0004930992301019155,-0.0038982998335497154
4.816666666666666,-0.07232955098152,0.17753356695175,9.44793319702148,0.006004141930516224,-0.003954628031273827,-0.010477127480318595
4.825,-0.61446505784988,0.1110261157155,9.8032922744751,0.006624651182423554,0.012412196973126958,-0.005213082698073089
4.833333333333333,0.66934883594513,0.04154392331839,9.44474983215332,0.005474831381781907,0.012937482611604363,-0.007966927544161504
4.841666666666667,-0.48079979419708,0.11978150904179,9.9106502532959,0.0052651631018436435,-0.0028785723312665917,-0.0055988883953496695
4.85,-0.03728777170181,0.19809798896313,9.45453453063965,0.006322442735943016,0.008954241463146124,-0.0030404054006444655
4.858333333333333,-0.39669665694237,0.02781740576029,9.85471534729004,0.006814200632712649,-0.0017922343327379535,-0.0005243928358283304
4.866666666666666,-0.01608668267727,0.07857423275709,9.80819892883301,0.0037380318914610085,0.016428965863293142,0.006829848784711442
4.875,0.02072178572416,0.08275123685598,9.69256687164307,0.008515237042500677,-0.004585866649467544,0.003438506111644861
4.883333333333334,-0.11351555585861,-0.10037560760975,9.64011383056641,0.0031398747274331636,0.015714125573040028,0.006927752724136844
4.891666666666667,1.14059948921204,0.05049907043576,9.65989303588867,0.007196431868463609,-0.015965595599268058,-0.001127914130341385
4.9,-0.46823945641518,-0.16782709956169,9.68712997436523,0.005534736901849162,-0.015432262220871438,-0.0014779566170477687
4.908333333333333,-0.4265168607235,-0.08957505226135,9.24857616424561,0.006970222861442583,-0.011342174217241218,-0.010816887538466425
4.916666666666667,-0.53973209857941,-0.17244789004326,9.52640628814697,0.0033495424872226447,0.027923583166400846,-0.0026268817620106605
4.925,1.19853031635284,-0.01042884495109,9.51506233215332,0.006591121880269782,0.0028935484512089705,-0.008038902073364104
4.933333333333334,-0.11131253838539,-0.19934973120689,9.67087936401367,0.004499809095555146,-0.005261810743791928,-0.00590243726490225
4.941666666666666,-0.3971828520298,0.01356873381883,9.89559459686279,0.007196878156005682,-0.006556475298814917,-0.003280025660393182
4.95,0.26817482709885,-0.06496940553188,9.7627592086792,0.008239852141772913,-0.0024230256230922073,-0.006267231557445694
4.958333333333333,-0.05409674346447,0.00814688857645,9.8528413772583,0.008314062790023526,-0.0078211876139528,-0.0056078297506502485
4.966666666666667,0.88740313053131,0.16048833727837,9.38199806213379,0.006698414502835049,-0.024726487406085122,-0.010254049248024337
4.975,-1.09072268009186,-0.0035549630411,9.48057079315186,0.008967206688406048,-0.01755307783703728,-0.009457847305874586
4.983333333333333,-0.68164449930191,0.05502682179213,9.38239097595215,0.005468125625380909,-0.005603358552851262,-0.009503893985300558
4.991666666666666,0.71328163146973,0.21965678036213,9.43157577514648,0.00709986783196164,0.023777168265418213,-0.005004755361355825
5.0,0.27863183617592,0.14703384041786,9.68627262115479,0.007319147418661937,-0.008012079567908722,-0.001368428525620247
5.008333333333334,-0.16523782908916,0.02230971679091,9.5816764831543,0.00783079944086379,0.002858231918292301,8.42694535261111e-05
5.016666666666667,-0.67651587724686,0.05115713179111,9.59134006500244,0.0033893307380869074,0.01655860979351498,0.00579000401322515
5.025,0.10813667625189,-0.01322560664266,9.59126853942871,0.004753287935871017,0.027952193422767734,0.0040281682079142
5.033333333333333,0.90222406387329,0.1063914373517,9.77964496612549,0.005635993719475064,0.001230289137528445,0.002461472150512731
5.041666666666667,-0.86269724369049,-0.2456286251545,9.81382942199707,0.008166088821361417,-0.00566281622493062,-0.004811181520958425
5.05,-0.6316032409668,-0.02531426772475,9.59721851348877,0.0035905036901921874,0.010706241517552046,-0.0073347929699175115
5.058333333333334,1.0696074962616,-0.07252267748117,9.83285617828369,0.004187766458615582,0.01247791255361924,-0.005877401990209591
5.066666666666666,0.02608632296324,-0.11096893250942,10.24518966674805,0.006658180484577499,-0.020065963820824893,-0.012068188340802484
5.075,-0.52591991424561,-0.06120654195547,9.40213203430176,0.005578994269917625,-0.02292128654771555,-0.013221584683564361
5.083333333333333,0.05499095842242,0.05279497802258,9.17709732055664,0.006285561075737355,0.010086849544945813,-0.0038097832768926583
5.091666666666667,0.25337538123131,-0.14572504162788,9.8775691986084,0.007166031780590604,-0.005357927452454432,-0.003527246072147346
5.1,0.29328086972237,0.0733452513814,9.44150257110596,0.006261867784562739,-0.019618463292123724,-0.009127029643324378
5.108333333333333,-0.45355463027954,0.03979841992259,9.56005382537842,0.0053635154094057265,-0.00687924678189191,-0.0068756707599202885
5.116666666666666,0.22665233910084,0.0306997988373,9.63177490234375,0.007821410757723923,-0.008037560609994669,-0.0116671818193664
5.125,-0.01756756566465,0.08106355369091,9.90928268432617,0.007968492151301888,-0.01679800820986445,-0.010205320682156889
5.133333333333334,0.04867509752512,0.07433234155178,9.5648889541626,0.004789499124466265,-0.014665117862928215,-0.0069744693550244435
5.141666666666667,-0.42814007401466,0.02545709908009,9.45260334014893,0.004821240155560096,0.0011411021092609752,-0.006294502431037756
5.15,0.46187353134155,0.0893245562911,9.62908458709717,0.006810401466970078,-0.007327194118283762,0.0019138326036353623
5.158333333333333,-0.31858763098717,0.00660922704265,9.71492671966553,0.004243647848649014,-0.010151673590651342,0.0012497358050840475
5.166666666666667,0.09790096431971,0.04408296942711,9.25981330871582,0.006127751096096089,0.002559376870161046,0.008016101877422242
5.175,-0.50830960273743,-0.06164320185781,9.60613250732422,0.007347981859097341,0.01173446408759385,0.003796148100170756
5.183333333333334,0.2975797355175,-0.00564370350912,9.50640869140625,0.0037027140581726427,0.013919657461922978,0.001704835445493272
5.191666666666666,-0.17510141432285,-0.13132585585117,9.50846099853516,0.005456948671180927,0.008614482445295338,-0.004360552038050793
5.2,0.54568326473236,-0.03684429451823,9.70285320281982,0.004266894852281556,0.012878024419376572,-0.005861308590966119
5.208333333333333,-0.17005209624767,-0.15334983170033,9.8628044128418,0.005794026842887452,0.0006234149973242669,-0.00828925169939921
5.216666666666667,-0.74355232715607,-0.13313587009907,9.80880069732666,0.0019422204964542151,0.021309886834703543,-0.009349213219940058
5.225,0.98552584648132,0.01326852384955,9.65070915222168,0.004870192385347101,0.003707855207433257,-0.0067656957307649325
5.233333333333333,0.37996625900269,-0.06789494305849,9.75036907196045,0.009504117649220115,-0.01994838525869796,-0.007229736466400431
5.241666666666666,-0.6843124628067,-0.12924471497536,9.55202102661133,0.004168543064868256,-0.00778050522755874,-0.005768767904275063
5.25,0.39329212903976,0.14131887257099,9.66988563537598,0.005984918276694593,0.004935685862365652,-0.0038133598190127145
5.258333333333334,-0.01960594207048,0.03524205833673,9.85789775848389,0.008820573662964765,-0.022431319002600637,-0.01173558136689477
5.266666666666667,-0.65668106079102,-0.01390512660146,9.23490715026855,0.004620066423231729,-0.00047834644898621403,-0.010587550877610458
5.275,0.12420912086964,0.167555347085,9.3234806060791,0.004913109850492132,0.014425945191093092,-0.007551614854244671
5.283333333333333,0.07141398638487,0.02077900804579,10.01393032073975,0.007251865670583271,0.009933735467320305,-0.004673936138359616
5.291666666666667,-0.32815098762512,0.0373308621347,9.60591888427734,0.0033102020843464547,0.015377048441630896,-0.0050767309308556415
5.3,-0.05369638651609,0.09566928446293,9.47487640380859,0.0032824846631380146,0.017040979007144748,0.0001598213457085293
5.308333333333334,-0.03106515109539,0.07097747921944,10.12977123260498,0.0073448526448164,0.003978992834356247,0.0051583178071178395
5.316666666666666,0.35227036476135,-0.16516630351543,9.81999492645264,0.004466280313549983,0.008634599714498507,0.005281704349075363
5.325,0.47767400741577,0.01977743953466,9.56601047515869,0.0027446800869425853,-0.006547981271353804,0.001368204861700515
5.333333333333333,-0.6800708770752,-0.09370224177837,10.2433500289917,0.008396321178193354,-0.004065050388268645,-0.0019156208746953032
5.341666666666667,0.37358582019806,-0.15466591715813,9.55212783813477,0.006785589856197152,-0.0012459359891557153,-0.000675049633701358
5.35,-0.04250934720039,-0.06372467428446,9.60868549346924,0.0057314389162299376,-0.012498699774284036,-0.007460416151071832
5.358333333333333,0.06431836634874,-0.00894820690155,9.61935043334961,0.011012025465855597,-0.016267353597017302,-0.006487182135905012
5.366666666666666,0.36006703972816,-0.096914075315,9.2643404006958,0.008812079635503475,-0.018783368795085853,-0.01081867580952654
5.375,0.29685014486313,0.00839743763208,9.33596229553223,0.004379551767878562,-0.02582221174708471,-0.00814217134611846
5.383333333333334,-1.12739539146423,0.09695678949356,9.61392879486084,0.007548708783734854,-0.007863656710961148,-0.004625654380183023
5.391666666666667,-0.06320325285196,-0.1109886020422,9.68752002716064,0.004427386718364474,0.02996393074605141,-0.002419002273281295
5.4,1.22581136226654,0.12911596894264,9.71017074584961,0.0037040552614677727,-0.005517077855167915,-0.005375362315067339
5.408333333333333,-0.98811519145966,0.08040510863066,10.01887989044189,0.006765472066845375,0.0018183870167688579,-0.005536747796531617
5.416666666666667,-0.32113403081894,-0.02471307292581,9.93631458282471,0.0072152076742973414,0.012422924518892866,-0.0014024043753903947
5.425,-3.41533756256104,-0.46839144825935,12.45084857940674,-0.006924846653627026,0.11311439673786096,0.016024380719142393
5.433333333333334,2.91965508460999,-0.17155963182449,12.78408336639404,-0.015179229668097639,0.15709524546138026,0.0308005981726081
5.441666666666666,1.91366708278656,-0.51215261220932,13.94035816192627,-0.0008659412625644002,0.05678620525554215,0.020584768407118422
5.45,0.78680557012558,-0.67141538858414,13.55994510650635,0.002116571203178418,0.008387826630583631,0.016163414372801315
5.458333333333333,-0.07150588184595,-0.67776131629944,12.7523307800293,0.012586546639553768,-0.045938247157592316,0.008326133879753478
5.466666666666667,-0.52225708961487,-0.90785413980484,10.72535991668701,0.019534417673191175,-0.0767017358448858,0.00027851388744360117
5.475,-2.07666778564453,-1.12674653530121,9.21322631835938,0.01870468902963087,-0.07910732764566232,-0.014301665033754204
5.483333333333333,-1.40498185157776,-0.54306530952454,9.02933120727539,0.010567209944487734,-0.03963658800127349,-0.023404103089184784
5.491666666666666,0.52897715568542,0.25139775872231,9.55626392364502,0.010717419512049247,-0.034253184708219364,-0.02487356879966326
5.5,1.01200866699219,0.49397081136703,9.80465984344482,0.012726920196136303,-0.04259026667676684,-0.02261103244191058
5.508333333333334,2.81147408485413,0.83196830749512,8.86682415008545,0.010290259916470977,-0.06186606019919212,-0.019832375464900458
5.516666666666667,13.03935241699219,2.30503749847412,3.34315085411072,0.0334449257203535,-0.35672034129348534,-0.0679196334164024
5.525,11.05899715423584,3.20702362060547,-8.52296447753906,0.10308642177835735,-1.0051401788927665,-0.19404783729823388
5.533333333333333,-47.32620620727539,-0.82075625658035,-7.3924355506897,0.07453873305228023,-0.5315515405350072,-0.14141139045919918
5.541666666666667,-5.35167264938354,3.05469989776611,-2.93897843360901,-0.04946508387275178,0.5420834438294027,0.052458780704812774
5.55,11.53321075439453,0.73827785253525,11.40534496307373,-0.04909582410404475,0.620779587725135,0.06982098479309683
5.558333333333334,10.07778072357178,1.37884020805359,14.08908653259277,-0.08108245274574112,0.43838750770131024,0.05035493337792063
5.566666666666666,0.82410269975662,1.19401431083679,17.34844207763672,-0.08573112526415053,0.4520143703670277,0.07438648346171174
5.575,10.12226867675781,1.77432250976562,20.51501655578613,-0.023807800859737997,0.34058118561344153,0.10810743750667348
5.583333333333333,8.78099536895752,-1.02527236938477,17.70354270935059,0.025809022857904883,0.09197506456503106,0.10656461835292017
5.591666666666667,-3.30044722557068,-3.50591230392456,12.09482479095459,0.014073889859146796,-0.04513757193704914,0.07746999124034629
5.6,-4.89685487747192,-1.04932224750519,9.47959327697754,0.029572984939811607,0.024155599295129213,0.07848324081133753
5.608333333333333,-4.251060962677,-4.91669464111328,9.41236686706543,0.0740153969309444,0.025199916304711877,0.03139338662234068
5.616666666666666,-7.0460844039917,-5.96025419235229,10.75423336029053,0.0025135541147291115,0.02890978500757081,-0.06777096660973796
5.625,-3.78646183013916,-0.47786915302277,13.47870445251465,-0.05415283411896883,0.03308637061087167,-0.10653087943086015
5.633333333333334,0.21886846423149,1.33296465873718,16.30967330932617,0.0041394849605132945,-0.026623332214872564,-0.11309674497326075
5.641666666666667,2.18176865577698,0.91558337211609,16.04911422729492,-0.005469690232521293,-0.11694139251381848,-0.08246826190847746
5.65,7.07842206954956,3.57751202583313,12.16988945007324,0.0179248072715365,-0.21230984861745017,-0.04157322626241145
5.658333333333333,0.12173826992512,1.16606724262238,6.95143890380859,0.07727151083772985,-0.3066335050135517,-0.035122255315101686
5.666666666666667,-4.79472064971924,-1.22295880317688,5.22544431686401,0.025543478649494276,-0.17394198639830122,-0.019895638024357603
5.675,1.54681551456451,1.22615253925323,6.46522665023804,-0.023569287736391456,-0.059542718464206994,-0.011754131948362945
5.683333333333334,3.34585857391357,2.18969058990479,7.06079912185669,0.018776883581712586,-0.056762286740001805,0.0018183870167688579
5.691666666666666,0.26197195053101,0.00122981064487,6.03621530532837,0.014007949574437389,-0.0421293567158581,0.020765151797889996
5.7,-2.23914003372192,-0.31836560368538,6.83432006835938,7.89048110195925e-05,0.019250759808178634,0.019704073518196835
5.708333333333333,-0.25832465291023,0.38800996541977,8.25303363800049,0.0005916742263049153,0.10130817918424104,0.02809033450134269
5.716666666666667,1.07255959510803,-1.03247332572937,9.27578544616699,0.01077955959071869,0.07168692028848248,0.006690367803213228
5.725,-1.69350290298462,-0.8177917599678,10.35348606109619,-0.019939892271534063,0.06953815292414128,-0.00418933106575614
5.733333333333333,-1.67996203899384,0.61874973773956,11.07983303070068,-0.012387832170044537,0.09590824556707703,-0.0006544852317148039
5.741666666666666,1.28037357330322,0.20477859675884,11.72357368469238,0.006093328698709389,0.08427301960019695,0.015440755208035332
5.75,0.86339819431305,-1.03180480003357,12.03071022033691,0.005431019781106733,0.02741081230445207,0.006241973659130695
5.758333333333334,-0.24112948775291,-0.16707611083984,11.0467004776001,-0.0006701320183233238,-0.0027958676555546913,0.0037717838172371195
5.766666666666667,-0.26445734500885,-0.15405668318272,10.43802452087402,0.015697138558415022,-0.030577063249798718,-0.009356813632019808
5.775,0.24509932100773,-0.73956817388535,10.32110214233398,0.0075205442947614285,-0.008317415668224025,-0.012189785571402502
5.783333333333333,-0.08307004719973,0.23461562395096,9.77465152740479,0.0006377208407121354,-0.05168422110770917,-0.026574157361463045
5.791666666666667,0.01147419959307,0.65077406167984,9.19826412200928,0.013955646547044493,-0.03892287331269991,-0.016213933290323317
5.8,0.0140601946041,-0.32668858766556,9.04587078094482,0.021969064977579257,-0.03887928069460663,-0.01597006471647243
5.808333333333334,0.21047240495682,-0.20440679788589,9.00221729278564,0.00235574439516215,-0.020881829462554517,-0.020076241958156903
5.816666666666666,0.51197189092636,0.59457290172577,9.06287384033203,0.005564241293746196,-0.018212480684129943,-0.011347090662284886
5.825,-0.54992485046387,-0.02668725699186,9.48768138885498,0.009394365243687102,0.014521614051767698,-0.0018360455433014968
5.833333333333333,1.53235352039337,0.11528237164021,9.26214504241943,0.0017086355214960827,-0.005772791774234583,-0.004588549056057631
5.841666666666667,-0.97800832986832,0.38621059060097,9.89156723022461,0.0014656622535095406,-0.017929049603929142,0.0003614421295472819
5.85,-0.64169591665268,0.17394281923771,9.31567764282227,0.010935356595082893,0.010893333785616617,0.0010899144756301184
5.858333333333333,-0.46363297104836,-0.36502388119698,9.62841320037842,0.0050458840352919565,0.015539104914854199,0.0017291998584642355
5.866666666666666,0.11508923768997,0.05891790613532,10.10874652862549,-0.0028638196151692915,0.027679491968927446,-0.001861080167808394
5.875,0.48735895752907,0.05808823928237,9.8931188583374,0.007637226120615173,0.01162404173059903,-0.00020430309290106157
5.883333333333334,-0.60604608058929,-0.15073186159134,10.0311107635498,0.004003580781209616,0.010908309905559169,-0.002301874419959958
5.891666666666667,0.15332834422588,-0.12753519415855,10.18717861175537,-0.002031407524721685,0.023133638274541117,0.0026863394340900177
5.9,0.09918837994337,0.10803629457951,10.0868616104126,0.006824930259073167,0.01604270971728544,0.006697073039465616
5.908333333333333,0.39412140846252,-0.37499508261681,10.15740299224854,0.010371399985042318,0.0046629838883767575,0.0047313829157565185
5.916666666666667,-0.03384010121226,-0.49099975824356,10.08979988098145,0.002820231938488328,-0.010650136203524754,-0.00552691282584968
5.925,-0.16897161304951,0.02650843560696,9.84889984130859,0.002247557637066911,-0.0012799119689630154,-0.012256396847870756
5.933333333333334,0.13938744366169,-0.01181649696082,9.90991306304932,0.008927418437541959,-0.015692892064833163,-0.015027677076720687
5.941666666666666,-0.09918131679296,-0.18512988090515,9.92823886871338,0.0063501598970771515,-0.01664108976500993,-0.01909719736241662
5.95,-0.0431816354394,0.10020384192467,9.64422798156738,0.004972343858651581,-0.01997878690701679,-0.015139887704775448
5.958333333333333,0.47895810008049,0.18368236720562,9.5421199798584,0.00971892655827021,-0.02477432235657103,-0.01583013848772936
5.966666666666667,-0.32806515693665,-0.1386363953352,9.6800708770752,0.007197324963696362,-0.011631864766301124,-0.010208895143682511
5.975,-0.04506291076541,0.12121923267841,9.47859001159668,0.00028320787141127875,0.003580221651745263,-0.005878743453579026
5.983333333333333,-0.00131612305995,0.46803912520409,9.52564811706543,0.004589666855507333,-0.008995148033608524,-0.004816993141829453
5.991666666666666,-0.54458886384964,-0.01450596563518,9.56261444091797,0.00952736413270405,-0.00038357120369297,-0.0018141398730010616
6.0,-0.77458322048187,-0.1765071451664,9.39725780487061,0.0007722836216651303,0.029599583261198825,-0.004174578609733319
6.008333333333334,0.64397770166397,0.27720123529434,9.58751487731934,0.0018952802016468828,0.024868877058836548,0.0010078804665843595
6.016666666666667,0.35743471980095,0.01761029846966,10.11345481872559,0.005373349859939056,0.02162192817127124,-0.0006817553250839543
6.025,-0.08954644203186,-0.22283251583576,9.83827018737793,0.003997321312350515,0.0065066289334977665,-0.0005610511246979395
6.033333333333333,0.16939362883568,0.0818642899394,9.57658386230469,-0.0015204262342047253,0.003534845704004185,-0.007678130090334354
6.041666666666667,-0.0543616078794,0.02027831040323,9.90213108062744,0.007388887389262523,0.02014285427492255,0.00217714680474463
6.05,0.53544753789902,-0.34151965379715,9.78979587554932,0.00824320397967602,0.010678301212646964,0.0023573090023025333
6.058333333333334,-0.32147023081779,-0.23258899152279,9.89797496795654,1.497626521834956e-05,0.0017271881835586925,-0.002408720234834371
6.066666666666666,0.08046948164701,0.02140130661428,9.95305919647217,0.005022860695579145,-0.01026298852273013,-0.008280757671938095
6.075,-0.57508140802383,-0.21354097127914,10.02810001373291,0.006798554041159858,0.009752679004195105,-0.009642480311120019
6.083333333333333,1.00415897369385,-0.02127255499363,10.02369403839111,0.0035900566224272026,-0.0047512760008911695,-0.00847030816252441
6.091666666666667,-0.34008625149727,0.15723578631878,10.46402072906494,0.007431804334258944,-0.02802372634576626,-0.01583930142635489
6.1,-0.54432457685471,-0.03434055298567,9.92781734466553,0.008602858683404676,-0.005676675065571905,-0.008976370667328964
6.108333333333333,0.05908248201013,-0.11852260679007,9.78087615966797,0.00655535697921643,-0.008348708851329783,-0.010380116636125947
6.116666666666666,0.39709722995758,0.21449230611324,9.93550586700439,0.004422021905184127,-0.009146698544390864,-0.0051817879545215054
6.125,-0.29688587784767,0.20329806208611,9.70538520812988,0.011679028725028013,-0.02079555136561439,-0.0015338378770438726
6.133333333333334,-0.80199819803238,-0.04394689947367,9.5555248260498,0.0075853678203181745,-0.011000627968627887,-0.0028329734998286935
6.141666666666667,0.1566544175148,0.03594303503633,9.7966194152832,0.0008851644612559987,0.020110669557030038,0.000864599994250694
6.15,0.7345826625824,0.31334459781647,9.91951942443848,0.004866615843226871,-0.0013232761117615735,-0.003245602742858049
6.158333333333333,-0.29751551151276,-0.1455245167017,9.63846874237061,0.0054480078360291334,-0.0024015671505940835,-0.0014801915657614126
6.166666666666667,0.1427421271801,-0.07912474870682,9.50617790222168,0.003072817163422838,0.0024111789775048994,-0.0019992199460116527
6.175,0.1745438426733,-0.09322275221348,9.69172286987305,0.003734901896957154,0.0055874877772301304,-0.005095954064528839
6.183333333333334,-0.70067119598389,-0.15638989210129,9.64573669433594,0.005126577296172792,0.003391565816837704,-0.0022222994786774333
6.191666666666666,0.16709756851196,-0.28918942809105,9.7251558303833,0.0009533400197717547,0.017559115722571086,-0.0008619177176977602
6.2,0.57014602422714,0.02728097327054,10.19348049163818,0.005601347658168808,0.006131104494445196,0.0001562449336254506
6.208333333333333,-0.01901941001415,-0.20306205749512,10.23365783691406,0.006050187569644802,-0.008152900452330369,-0.004543396512161804
6.216666666666667,-0.16694734990597,-0.12216340750456,9.89927005767822,0.005806097932617406,-0.011641252409143774,-0.008680870057844034
6.225,0.44630163908005,0.01268199086189,10.00752067565918,0.005002743426375978,-0.0065247337475724775,-0.00875195149181388
6.233333333333333,-0.39482977986336,-0.00238189660013,10.15008449554443,0.009310991656810787,-0.019028799895482687,-0.009972405398586083
6.241666666666666,-0.47969841957092,-0.09117696434259,9.76546955108643,0.007275559481906669,-0.013785764957524668,-0.010501715947320573
6.25,-0.38654679059982,0.02627239190042,9.77340888977051,0.0037022669904076574,0.010953015641764312,-0.004373517523385195
6.258333333333334,0.74393093585968,0.23644457757473,9.86384201049805,0.00647444109471343,-0.0034284472169690606,-0.007471145257283741
6.266666666666667,0.42338392138481,0.15543842315674,9.52362442016602,0.009509257758183513,-0.02616443418894368,-0.004764911177612897
6.275,-1.51422822475433,-0.06548427790403,9.66764640808105,0.0045065148519561424,-0.0013112054121430774,0.0032212381998499334
6.283333333333333,-0.19361467659473,0.14410102367401,9.40342998504639,-0.0014050867819804809,0.039079787596365205,0.004175696149108718
6.291666666666667,1.60152864456177,0.27869620919228,9.8374195098877,0.00538184388740017,0.006233032303830118,0.00673417836359101
6.3,-0.04148649051785,-0.13797119259834,9.99506092071533,0.004379552288027171,-0.0006276620760734868,-0.0012262656576803811
6.308333333333334,-1.00532495975494,-0.04673667624593,9.62807750701904,0.004105508850668842,-0.0025088600332334823,-0.0007590955127083883
6.316666666666666,0.19431574642658,-0.06159456819296,9.70176982879639,0.0019118209287298195,0.029465915461017463,0.0018121281980956932
6.325,0.39646062254906,-0.15025977790356,10.12803936004639,0.006300760859599464,0.002483377950850143,-0.00506823638324592
6.333333333333333,0.22907695174217,-0.17821307480335,9.87862682342529,0.003985027859072527,-0.0018481159828456887,-0.0020019020925274343
6.341666666666667,-1.1004935503006,-0.28193646669388,9.97663497924805,0.00550791335609639,0.005680923119599765,-0.00521665872004471
6.35,0.68945544958115,-0.09816557168961,9.9309139251709,0.005173964918819413,0.010378106781740708,0.00081341255567574
6.358333333333333,0.96099901199341,-0.04655088111758,9.98127746582031,0.007386428646591994,-0.006837671300264923,-0.0064281712715165105
6.366666666666666,-0.72014111280441,-0.16469444334507,9.91399192810059,0.006388160397029908,-0.022030758768706627,-0.008812303299423207
6.375,-0.13814254105091,0.0515934638679,9.54078388214111,0.005023531687338166,8.583413381237076e-05,-0.007222137094618071
6.383333333333334,-0.25439801812172,-0.04993399605155,9.95942497253418,0.0069637402488125335,0.00565342858208797,-0.0070513629300139255
6.391666666666667,1.55590081214905,0.21630181372166,9.75619125366211,0.00389002920993403,-0.014966431653729998,-0.005429008366275669
6.4,-1.0431991815567,-0.03248105943203,9.93565654754639,0.007137867291617005,-0.022875240908586968,-0.009797160036183299
6.408333333333333,-0.8214396238327,0.03723770007491,9.71971893310547,0.004488408997584214,0.00407443803111112,-0.003696678513307753
6.416666666666667,-0.34493869543076,0.05926845595241,9.97011852264404,0.0010680089353670103,0.026788294238456897,0.004035098148383539
6.425,1.13497018814087,0.29328802227974,9.94127178192139,0.005794027363036062,-0.004698524085212984,0.007868799420667762
6.433333333333334,-0.34056115150452,0.01165198162198,9.99947452545166,0.006491428629487047,-0.006883717459542111,0.0057368042495588925
6.441666666666666,-0.22689533233643,0.00395552208647,9.85100936889648,0.006136022499934861,-0.013790682442865548,0.00676413112362455
6.45,-0.61257660388947,-0.1998146623373,10.0402307510376,0.0028197848707233433,0.016553691267876706,0.002606094021197255
6.458333333333333,0.67726695537567,0.18417854607105,9.88479232788086,0.005549042030032694,0.000623415062342843,0.00086437652538669
6.466666666666667,-0.19113111495972,-0.22241765260696,9.92245960235596,0.002305227298160457,0.006072540437747374,-0.001816375341863489
6.475,0.53518283367157,0.00205286592245,9.62513732910156,0.00448729171828312,-0.01367623621591121,-0.002620176005609663
6.483333333333333,-0.6481905579567,-0.32687738537788,10.09502983093262,0.0038082186697521005,0.007149937861198348,-0.005561336263533596
6.491666666666666,0.44991382956505,0.03474850952625,9.80734920501709,0.004245882927399809,0.0011978777648615285,-0.005698580605835188
6.5,-0.77280747890472,-0.34809309244156,10.1824369430542,0.004129426065837494,0.00704465613331571,-0.0024118494491153124
6.508333333333334,0.99921691417694,0.24645093083382,9.68706703186035,0.00421771843842621,-0.0034047536657199665,-0.00546119620506018
6.516666666666667,-0.87801849842072,-0.31137779355049,10.1556282043457,0.008598164861983526,-0.01299537515639455,-0.006961952497901027
6.525,0.7477725148201,0.08192866295576,9.61387825012207,0.0053420566768333,0.0028166559165167062,-0.010828064492666406
6.533333333333333,-0.62820547819138,-0.17423647642136,10.08887767791748,0.004899698337689962,-0.01308478662880484,-0.0116171123102783
6.541666666666667,0.02834671735764,0.2138342410326,9.90591526031494,0.0035931860967824475,0.013796269879668236,-0.00518357622558162
6.55,0.44559362530708,0.13125446438789,9.85298347473145,0.007170950306228879,-0.013464782265656224,-0.007120208765084366
6.558333333333334,-0.12204895913601,0.07359559834003,9.86454963684082,0.0054788547315928185,-0.010240636694924948,0.002689692572364821
6.566666666666666,0.43983554840088,0.20731787383556,9.54008960723877,0.007972961268506263,-0.014986547882635771,0.003527022408227788
6.575,-0.50819516181946,0.05214422568679,9.79539680480957,0.007299253293229894,-0.01061616113397752,0.01030613069209211
6.583333333333333,-0.10875182598829,-0.09559774398804,9.62784862518311,0.0017280823190888373,0.00892071372143818,0.006022023600819811
6.591666666666667,-0.0141769349575,-0.01765321567655,9.88452053070068,0.0027223277389886217,0.00567511097858013,0.006545075720992595
6.6,0.15809214115143,0.08842344582081,9.90885448455811,0.0032668378115107448,-0.0003777595503127421,0.0015179674915341966
6.608333333333333,0.22310462594032,-0.05981211364269,9.6655158996582,0.00705560942359596,-0.0011203141083730903,0.00458832487198929
6.616666666666666,-0.09976055473089,-0.2117672264576,9.93323040008545,0.006810624610741202,-0.008414425992268064,0.002049513249056636
6.625,-0.3877269923687,-0.24519230425358,9.99800777435303,0.006425713048994591,0.0023530622486463678,0.0011397609059658447
6.633333333333334,-0.11732808500528,-0.22264654934406,9.95947551727295,0.004107743929419638,0.006397994847563237,-0.00042738234923793726
6.641666666666667,0.09480378031731,-0.15342132747173,10.22894477844238,0.0035073519467153018,0.006031411763811069,-0.0013916751391413336
6.65,0.05691519007087,-0.10144875943661,10.20494079589844,0.0050364963924494814,0.009072041608598178,-0.0001412686511365445
6.658333333333333,0.16397891938686,-0.03125077113509,9.91027069091797,0.0037594898438105223,-0.002617046531254592,-0.0031298158327573633
6.666666666666667,0.15131141245365,-0.019277067855,9.92999267578125,0.006996598559207285,-0.007475615414785334,-0.002404696624949155
6.675,-0.14556750655174,-0.09343043714762,9.9432954788208,0.009376259909463782,-0.010022027579834891,-0.008595035647702585
6.683333333333334,-0.0555559322238,0.00495669199154,9.66400623321533,0.005086342237617848,-0.00590199045721157,-0.008701434654886493
6.691666666666666,-0.1778125166893,0.16070292890072,9.69094371795654,0.004966755901700286,-0.006117692461494417,-0.012131445698772846
6.7,-0.33005318045616,0.11056879162788,9.80176258087158,0.006868965523667899,0.002070748447746484,-0.007097409089291112
6.708333333333333,-0.19424974918365,0.0279962271452,9.65628051757812,0.0017808344948413268,0.020293734834243085,-0.0017166824811922106
6.716666666666667,0.22848322987556,0.09639882296324,9.75270652770996,0.0015854726434582904,0.019822095246973835,-0.0009629515866082658
6.725,0.26457649469376,0.17922163009644,9.83345699310303,0.004505397572655049,0.00876312740571647,0.0070768444922486564
6.733333333333333,-0.27409693598747,-0.0856910571456,10.01313591003418,0.006360889003289235,0.012851647681314478,0.0036101738916303693
6.741666666666666,0.19957147538662,-0.10425984114408,10.06557369232178,0.001998549084289783,0.0157561494228037,0.0069912332258783285
6.75,0.30511850118637,0.03898328915238,10.2535285949707,0.005123447561743241,-0.005412020311353443,-0.003071699363973136
6.758333333333334,0.32335141301155,-0.09136326611042,10.14533519744873,0.008964078514422498,-0.01416978342403835,0.0011697135359622333
6.766666666666667,-0.34697723388672,-0.29227247834206,10.08997344970703,0.008816997120844532,-0.02400315412866829,-0.005032919330180642
6.775,-0.78202748298645,-0.24114379286766,9.94278049468994,0.0062383981573076825,-0.005655665221284767,-0.004099473825952387
6.783333333333333,0.04863217845559,-0.06813082844019,9.73475456237793,0.0052602461366513704,0.004388045795339675,-0.002507519090012831
6.791666666666667,0.28640729188919,-0.16409333050251,9.89565086364746,0.006879917773650932,0.0011723958125153414,-0.0048456044384937325
6.8,0.20962825417519,-0.04199425131083,9.8889331817627,0.0035931860967824475,-0.002745797626317984,-0.0010081038704297873
6.808333333333334,0.01279643643647,0.03730207681656,9.86792659759521,0.0035127167598956485,-0.004658289546806824,-0.004801792837818734
6.816666666666666,-0.16053818166256,0.02741700224578,9.89827537536621,0.005889696743859276,0.003955746090797833,-0.004187990122535314
6.825,0.08977564424276,0.02654434554279,9.83148956298828,0.005999224445175342,0.0028372202534848586,-0.011060979776237214
6.833333333333333,0.16889329254627,0.08127067238092,9.70245933532715,0.004156472755361216,0.0006877906098745389,-0.009295119840892438
6.841666666666667,-0.15598204731941,0.1192879602313,9.65610885620117,0.006141386272817816,-0.0009625045188432807,-0.009463657366299614
6.85,-0.16743375360966,0.07626361399889,9.84312725067139,0.00529220979136754,-0.0023398738796153217,-0.00937558995800215
6.858333333333333,0.27134281396866,0.14674094319344,9.84231090545654,0.0036307384886728263,-0.004933227119695124,-0.00430914106559326
6.866666666666666,0.00450629089028,0.14455179870129,9.86897754669189,0.004463151099269041,-0.004026604380996731,0.0003636774358630072
6.875,-0.29010501503944,0.05274506285787,9.99307250976562,0.005260693464490833,0.006106069739901146,0.0041810609622888895
6.883333333333334,0.02292486093938,-0.11315797269344,9.98994636535645,0.004655830283987687,0.006119481252703142,0.0023208741497875523
6.891666666666667,-0.1755665242672,-0.23022140562534,10.00663375854492,0.0020763364046977786,0.009091934173584225,0.010991014581271068
6.9,-0.09974630177021,-0.31443154811859,10.10897064208984,0.004172566414679168,0.014243771448666622,0.018403148454017526
6.908333333333333,0.16719791293144,-0.73363107442856,10.32957172393799,0.007142114305347649,0.009783748523381128,0.01368607222689054
6.916666666666667,0.6442283987999,-0.74318790435791,10.28825569152832,0.007536414550233952,-0.006733955219819886,-0.020016341639576257
6.925,0.16679745912552,0.02610623650253,10.10089778900146,0.006314172892550243,-0.03641222396810892,-0.046277342465764953
6.933333333333334,-0.42870119214058,0.75922018289566,9.59301948547363,0.011202024324578595,-0.027275136730480258,-0.031515430140482775
6.941666666666666,-0.56272131204605,0.52185714244843,9.35085391998291,0.014432426243277141,-0.011838402271512444,-0.008158711553052788
6.95,0.01166628673673,-0.00057938025566,9.43552303314209,0.009946029700821382,0.0024310728428626393,0.002043925032030862
6.958333333333333,0.19382058084011,0.00245342520066,9.68216705322266,-0.003931381807864197,0.00434468178257827,-0.004236271620637603
6.966666666666667,-0.1615898758173,0.50553435087204,9.65434265136719,-0.005140212472894519,0.006456559424409668,-0.00015870372505995465
6.975,-0.38837075233459,0.47283867001534,9.74454689025879,0.003831018345545354,0.014903619543004315,0.007739600217541992
6.983333333333333,-0.04813148081303,-0.08619175851345,9.83900737762451,0.007740270689152405,0.019666296162015026,0.01893402256959501
6.991666666666666,-0.03999147191644,-0.38825604319572,9.87226867675781,0.004259965431961001,0.017131060431016667,0.01527489748847485
7.0,-0.11688460409641,-0.47323924303055,9.95688629150391,0.005008332423624665,0.013572970064048853,0.004075332946864178
7.008333333333334,0.15969434380531,-0.38778436183929,10.09712314605713,0.001828669185252934,0.01249981913417974,-0.00216373529194246
7.016666666666667,0.24953408539295,-0.07203628122807,10.07580947875977,-0.003363177403870067,0.004979049615052754,-0.005540771666491139
7.025,0.08559807389975,0.24573591351509,10.10646629333496,0.0029275248211279013,-0.0008149770977975473,0.002416543530610767
7.033333333333333,0.052709300071,0.1055258885026,10.09067249298096,0.010115238217987751,-0.005065554496804442,0.004757758613521219
7.041666666666667,0.19115987420082,-0.34143382310867,10.11892509460449,0.012348267583100007,-0.0057338986991976836,0.002278851340321277
7.05,0.27548459172249,-0.32709950208664,10.0612964630127,0.00663001547545529,-0.013140668278912577,-0.007509144716939107
7.058333333333334,-0.16695450246334,-0.19240432977676,9.95600605010986,0.0059992239250265585,-0.013598896353379655,-0.009930827836364661
7.066666666666666,-0.12316459417343,-0.09174284338951,9.96984672546387,0.0038386179774021916,-0.008064830963438298,-0.012709262189752272
7.075,-0.01320391241461,0.09493927657604,10.00531101226807,0.0041774846802431365,-0.007311548046879578,-0.012383360972245728
7.083333333333333,0.29026237130165,0.28241568803787,9.91176605224609,0.008124960667573894,-0.009335801707137888,-0.005449126155627444
7.091666666666667,0.00447052670643,-0.02941964380443,9.98326587677002,0.011114848451067885,-0.009758714809134473,0.00042134722699370555
7.1,-0.08026228100061,-0.23052160441875,9.87698936462402,0.010103167648406408,-0.011248293627626728,0.004577596285925988
7.108333333333333,0.17327040433884,0.02627255767584,9.82264709472656,0.0035381991023532918,-0.01178073443093938,-0.0032111798253227413
7.116666666666666,0.04996976256371,0.2468159943819,9.74372386932373,0.00477295839738333,-0.007691989451124422,-0.0011855837914349313
7.125,-0.53275090456009,0.1262119114399,9.97122764587402,0.006202186448563825,-0.00788511700397975,-0.002615258520268781
7.133333333333334,-0.10885196179152,0.09350196272135,9.91426277160645,0.006866283117077813,0.00145023893576485,0.0038741586943870274
7.141666666666667,-0.11002503335476,0.06054166331887,9.98539066314697,0.0052841630917457175,0.006919035032755998,0.004529090863829664
7.15,-0.0214227642864,-0.06331696361303,9.88241767883301,0.003565022388031761,0.007945692475508635,0.007486122417523514
7.158333333333333,0.04948318004608,-0.10059780627489,9.79766368865967,0.002251133919112837,0.0026928220467200663,0.004629007258383522
7.166666666666667,0.08544765412807,0.05220867693424,9.75594139099121,0.002799220793829495,-0.0009329990216304537,0.008714621983620146
7.175,-0.07234385609627,0.06472607702017,9.71014881134033,0.00670288570063386,-0.0019715025248030382,0.010961956997064717
7.183333333333334,-0.24622231721878,-0.20582304894924,9.68620109558105,0.006110092569563449,0.004734958937727966,0.009039628025299328
7.191666666666666,0.02710212208331,-0.25454822182655,9.73135662078857,0.0034309059596394145,0.011401856073388918,0.008496907524209016
7.2,0.40320575237274,-0.08727183938026,9.78488159179688,0.00491646272869263,0.008842927571364552,-0.0014949444118956905
7.208333333333333,0.51507622003555,-0.12129075825214,9.88320446014404,0.006403360180892192,-0.00477318258145167,-0.005515736391798481
7.216666666666667,-0.06732255965471,-0.21327631175518,9.91873264312744,0.007003752163596354,-0.009443094849851766,-0.007187266329094865
7.225,-0.6382839679718,-0.17747634649277,9.93943309783936,0.004049180652944731,0.00020050314693540301,-0.006338313511564149
7.233333333333333,-0.31954610347748,-0.05009851232171,9.93625736236572,0.004466727641389273,0.018476019199344704,-0.007004422115058158
7.241666666666666,0.55074745416641,-0.07705042511225,9.87572956085205,0.004466280313549983,0.010414764778026811,-0.006594921566160962
7.25,-0.31014010310173,-0.10347302258015,9.95323085784912,0.005681817255129911,0.0009958100270403422,-0.003267061475430476
7.258333333333334,-0.63833391666412,-0.00459936866537,9.75564670562744,-0.00017390349266746495,0.01613972160177531,-0.002536130126602807
7.266666666666667,0.28514093160629,0.15090352296829,9.82987308502197,0.0017982697475656905,0.025494297554301104,0.0004843816362490218
7.275,0.77591896057129,0.30343076586723,9.96823787689209,0.004717970882805738,-0.003947475467182148,-0.0013505463351678759
7.283333333333333,-0.36895793676376,0.09338036179543,10.00501728057861,0.004822581098780748,-0.001660353633282164,0.002346356232171066
7.291666666666667,-0.41168189048767,0.01867607235909,10.01951599121094,0.004243647848649014,0.007866116493929067,0.003621797393446554
7.3,0.53712129592896,0.09742172062397,10.04241275787354,0.004717747218886007,0.010231695339624371,0.00559978253087964
7.308333333333334,-0.28373897075653,-0.05446889996529,10.08839130401611,0.005919201655904918,-0.0024055910205536047,0.004508303643164867
7.316666666666666,-0.60613906383514,-0.21511459350586,9.90597915649414,0.0030048649437337594,0.010879252321352817,0.010710265387511568
7.325,0.08485417813063,-0.03250966966152,9.99835872650146,0.0025817294781893137,0.014643213362962324,0.012773190539481831
7.333333333333333,0.24651558697224,-0.08869525045156,10.28457927703857,0.0057844150159764626,-0.0027024336135565777,0.009181121982074781
7.341666666666667,0.02628669701517,-0.19831256568432,10.18569087982178,0.007177655022332659,-0.0064263835206050035,0.006057340653885089
7.35,0.53261500597,-0.1151035502553,10.0778694152832,0.006531663688041816,-0.013133067866832824,0.0033191429194984233
7.358333333333333,-0.17779105901718,-0.1151822283864,10.31640911102295,0.010434433679093122,-0.025448474538794865,-0.005852814563505005
7.366666666666666,-0.3285801410675,-0.26171538233757,10.02118301391602,0.007977432466305072,-0.012956481561209217,-0.004500032239326095
7.375,0.36550313234329,-0.12288584560156,9.74873828887939,0.005384973621829545,-0.010354635594039823,-0.003867900005751015
7.383333333333334,-0.45376205444336,-0.08154956251383,9.96590614318848,0.00906108831831793,-0.01872927333544363,-0.012012754018534041
7.391666666666667,0.27064225077629,-0.01787509396672,9.60129737854004,0.010893557449536347,-0.012697637907713001,-0.005313221196100678
7.4,0.18146698176861,-0.06505232304335,9.72844123840332,0.008994029714010213,-0.03164999259634289,-0.003790559883145157
7.408333333333333,-0.48198002576828,-0.0346841365099,9.98808670043945,0.0060121881099894385,-0.014339216645421673,-0.004322105510630269
7.416666666666667,0.0839813426137,0.18085977435112,9.58926486968994,0.007509815188549519,-0.006736190298570683,-0.002724785961510367
7.425,-0.57322841882706,-0.10466060787439,9.86532306671143,0.006900035563002708,-0.0027820095951361454,-0.007307524176920058
7.433333333333334,0.37468752264977,0.1490725427866,9.62257099151611,0.004547196718201767,0.007931834155015959,-0.0023962028575623463
7.441666666666666,0.33267861604691,0.18083117902279,9.87977027893066,0.009358825566999482,-0.014163077667637353,-0.005133506716493521
7.45,-0.0217446424067,-0.04476964473724,9.92826080322266,0.00926539230522428,-0.011105237144305675,0.0008920938165581522
7.458333333333333,0.03509899973869,-0.04590694606304,9.75030517578125,0.009496517237140362,-0.01990278694740867,0.0003498187252588746
7.466666666666667,-0.77640479803085,-0.12090440094471,9.90400505065918,0.006018448098996973,0.0013364643507554677,0.007796376523328482
7.475,0.56335091590881,0.03795317560434,9.4747200012207,0.004755076206931132,0.003584692329395639,0.012555252416150794
7.483333333333333,-0.11754931509495,-0.21155959367752,10.02451610565186,0.0067136142866971605,0.00011601018390878715,0.008023032338040189
7.491666666666666,1.05421435832977,0.05029899999499,9.57837867736816,0.00775882335121519,-0.006877012743438332,0.0060354361539191985
7.5,-0.83172529935837,-0.32467460632324,9.98350811004639,0.010357988472240323,-0.025672448467065095,-0.001806540111107246
7.508333333333334,-0.42369145154953,-0.27395388484001,9.63489246368408,0.001338699429506264,0.01766506376087509,-9.835160048504677e-05
7.516666666666667,-0.37788468599319,-0.14131872355938,9.90892601013184,0.00361285655829476,0.013165478329239675,-0.007183690827271851
7.525,0.89349728822708,0.14508099853992,9.89003467559814,0.0027518331711828725,0.019210077941933013,-0.0029715595655740246
7.533333333333333,0.16027398407459,-0.02798940613866,9.96730899810791,0.010489422754116889,-0.01758347948535611,-0.008459132248621819
7.541666666666667,-0.71373212337494,-0.19266182184219,9.86148834228516,0.005364856872775162,-0.00294563067549983,-0.0026921515751096537
7.55,-0.44986376166344,-0.02990603633225,9.92245197296143,0.004608443181489673,0.0108010188434399,-0.004527303112918332
7.558333333333334,0.69281017780304,0.17676809430122,9.91705322265625,0.0005630629946592109,0.023551858595413765,0.004657619075196412
7.566666666666666,0.44518598914146,0.21408440172672,9.96411895751953,0.007300817900370276,-0.01024108402276424,-0.004386034380508437
